#  E (eV)   dos(E)     Int dos(E) EFermi =   -2.187 eV
  -5.000  0.5558E+01  0.2496E+02
  -4.990  0.5033E+01  0.2501E+02
  -4.980  0.4852E+01  0.2506E+02
  -4.970  0.2050E+01  0.2511E+02
  -4.960  0.2035E+01  0.2513E+02
  -4.950  0.1929E+01  0.2515E+02
  -4.940  0.1837E+01  0.2517E+02
  -4.930  0.1785E+01  0.2519E+02
  -4.920  0.1728E+01  0.2520E+02
  -4.910  0.1725E+01  0.2522E+02
  -4.900  0.1742E+01  0.2524E+02
  -4.890  0.1669E+01  0.2525E+02
  -4.880  0.1616E+01  0.2527E+02
  -4.870  0.1624E+01  0.2529E+02
  -4.860  0.1642E+01  0.2530E+02
  -4.850  0.1763E+01  0.2532E+02
  -4.840  0.1872E+01  0.2534E+02
  -4.830  0.1842E+01  0.2536E+02
  -4.820  0.2155E+01  0.2538E+02
  -4.810  0.2075E+01  0.2540E+02
  -4.800  0.1243E+01  0.2542E+02
  -4.790  0.1132E+01  0.2543E+02
  -4.780  0.9981E+00  0.2544E+02
  -4.770  0.9458E+00  0.2545E+02
  -4.760  0.9051E+00  0.2546E+02
  -4.750  0.8328E+00  0.2547E+02
  -4.740  0.8014E+00  0.2548E+02
  -4.730  0.7745E+00  0.2548E+02
  -4.720  0.7507E+00  0.2549E+02
  -4.710  0.7224E+00  0.2550E+02
  -4.700  0.6856E+00  0.2551E+02
  -4.690  0.6673E+00  0.2551E+02
  -4.680  0.6493E+00  0.2552E+02
  -4.670  0.6328E+00  0.2553E+02
  -4.660  0.6179E+00  0.2553E+02
  -4.650  0.6648E+00  0.2554E+02
  -4.640  0.8636E+00  0.2555E+02
  -4.630  0.1134E+01  0.2556E+02
  -4.620  0.9629E+00  0.2557E+02
  -4.610  0.1000E+01  0.2558E+02
  -4.600  0.1057E+01  0.2559E+02
  -4.590  0.1402E+01  0.2560E+02
  -4.580  0.1188E+01  0.2561E+02
  -4.570  0.1145E+01  0.2562E+02
  -4.560  0.1148E+01  0.2563E+02
  -4.550  0.1179E+01  0.2565E+02
  -4.540  0.1221E+01  0.2566E+02
  -4.530  0.1232E+01  0.2567E+02
  -4.520  0.1263E+01  0.2568E+02
  -4.510  0.1276E+01  0.2570E+02
  -4.500  0.1292E+01  0.2571E+02
  -4.490  0.1350E+01  0.2572E+02
  -4.480  0.1396E+01  0.2574E+02
  -4.470  0.1381E+01  0.2575E+02
  -4.460  0.1364E+01  0.2576E+02
  -4.450  0.1403E+01  0.2578E+02
  -4.440  0.1435E+01  0.2579E+02
  -4.430  0.1441E+01  0.2581E+02
  -4.420  0.1459E+01  0.2582E+02
  -4.410  0.1542E+01  0.2583E+02
  -4.400  0.1530E+01  0.2585E+02
  -4.390  0.1543E+01  0.2587E+02
  -4.380  0.1604E+01  0.2588E+02
  -4.370  0.1634E+01  0.2590E+02
  -4.360  0.1655E+01  0.2591E+02
  -4.350  0.1708E+01  0.2593E+02
  -4.340  0.1753E+01  0.2595E+02
  -4.330  0.1758E+01  0.2597E+02
  -4.320  0.1767E+01  0.2598E+02
  -4.310  0.1833E+01  0.2600E+02
  -4.300  0.1913E+01  0.2602E+02
  -4.290  0.1996E+01  0.2604E+02
  -4.280  0.2037E+01  0.2606E+02
  -4.270  0.2162E+01  0.2608E+02
  -4.260  0.2229E+01  0.2610E+02
  -4.250  0.2418E+01  0.2613E+02
  -4.240  0.2569E+01  0.2615E+02
  -4.230  0.3075E+01  0.2618E+02
  -4.220  0.3087E+01  0.2621E+02
  -4.210  0.2554E+01  0.2624E+02
  -4.200  0.2378E+01  0.2626E+02
  -4.190  0.2239E+01  0.2629E+02
  -4.180  0.2124E+01  0.2631E+02
  -4.170  0.2019E+01  0.2633E+02
  -4.160  0.1990E+01  0.2635E+02
  -4.150  0.1926E+01  0.2637E+02
  -4.140  0.1913E+01  0.2639E+02
  -4.130  0.1831E+01  0.2641E+02
  -4.120  0.1815E+01  0.2643E+02
  -4.110  0.1724E+01  0.2644E+02
  -4.100  0.1676E+01  0.2646E+02
  -4.090  0.1778E+01  0.2648E+02
  -4.080  0.1542E+01  0.2649E+02
  -4.070  0.1387E+01  0.2651E+02
  -4.060  0.1193E+01  0.2652E+02
  -4.050  0.1189E+01  0.2653E+02
  -4.040  0.1187E+01  0.2655E+02
  -4.030  0.1186E+01  0.2656E+02
  -4.020  0.1186E+01  0.2657E+02
  -4.010  0.1188E+01  0.2658E+02
  -4.000  0.1192E+01  0.2659E+02
  -3.990  0.1189E+01  0.2661E+02
  -3.980  0.1182E+01  0.2662E+02
  -3.970  0.1175E+01  0.2663E+02
  -3.960  0.1173E+01  0.2664E+02
  -3.950  0.1172E+01  0.2665E+02
  -3.940  0.1171E+01  0.2666E+02
  -3.930  0.1170E+01  0.2668E+02
  -3.920  0.1173E+01  0.2669E+02
  -3.910  0.1175E+01  0.2670E+02
  -3.900  0.1183E+01  0.2671E+02
  -3.890  0.1186E+01  0.2672E+02
  -3.880  0.1190E+01  0.2674E+02
  -3.870  0.1200E+01  0.2675E+02
  -3.860  0.1205E+01  0.2676E+02
  -3.850  0.1210E+01  0.2677E+02
  -3.840  0.1214E+01  0.2678E+02
  -3.830  0.1219E+01  0.2680E+02
  -3.820  0.1223E+01  0.2681E+02
  -3.810  0.1228E+01  0.2682E+02
  -3.800  0.1233E+01  0.2683E+02
  -3.790  0.1241E+01  0.2684E+02
  -3.780  0.1249E+01  0.2686E+02
  -3.770  0.1281E+01  0.2687E+02
  -3.760  0.1298E+01  0.2688E+02
  -3.750  0.1312E+01  0.2690E+02
  -3.740  0.1325E+01  0.2691E+02
  -3.730  0.1340E+01  0.2692E+02
  -3.720  0.1359E+01  0.2694E+02
  -3.710  0.1380E+01  0.2695E+02
  -3.700  0.1406E+01  0.2696E+02
  -3.690  0.1494E+01  0.2698E+02
  -3.680  0.1559E+01  0.2699E+02
  -3.670  0.1613E+01  0.2701E+02
  -3.660  0.1806E+01  0.2703E+02
  -3.650  0.1857E+01  0.2704E+02
  -3.640  0.1934E+01  0.2707E+02
  -3.630  0.1673E+01  0.2708E+02
  -3.620  0.1489E+01  0.2710E+02
  -3.610  0.1345E+01  0.2711E+02
  -3.600  0.1435E+01  0.2713E+02
  -3.590  0.1268E+01  0.2714E+02
  -3.580  0.1202E+01  0.2715E+02
  -3.570  0.1179E+01  0.2716E+02
  -3.560  0.1255E+01  0.2718E+02
  -3.550  0.1098E+01  0.2719E+02
  -3.540  0.1087E+01  0.2720E+02
  -3.530  0.1070E+01  0.2721E+02
  -3.520  0.1048E+01  0.2722E+02
  -3.510  0.1035E+01  0.2723E+02
  -3.500  0.1005E+01  0.2724E+02
  -3.490  0.9979E+00  0.2725E+02
  -3.480  0.9859E+00  0.2726E+02
  -3.470  0.1450E+01  0.2727E+02
  -3.460  0.1514E+01  0.2729E+02
  -3.450  0.1583E+01  0.2730E+02
  -3.440  0.1425E+01  0.2732E+02
  -3.430  0.1497E+01  0.2733E+02
  -3.420  0.1489E+01  0.2735E+02
  -3.410  0.1566E+01  0.2736E+02
  -3.400  0.5950E+01  0.2738E+02
  -3.390  0.2239E+01  0.2740E+02
  -3.380  0.2480E+01  0.2743E+02
  -3.370  0.2623E+01  0.2745E+02
  -3.360  0.2736E+01  0.2748E+02
  -3.350  0.3223E+01  0.2751E+02
  -3.340  0.3448E+01  0.2754E+02
  -3.330  0.4356E+01  0.2758E+02
  -3.320  0.5214E+01  0.2763E+02
  -3.310  0.3917E+01  0.2767E+02
  -3.300  0.3436E+01  0.2771E+02
  -3.290  0.3192E+01  0.2774E+02
  -3.280  0.2955E+01  0.2777E+02
  -3.270  0.2816E+01  0.2780E+02
  -3.260  0.2758E+01  0.2783E+02
  -3.250  0.2609E+01  0.2786E+02
  -3.240  0.2533E+01  0.2788E+02
  -3.230  0.2478E+01  0.2791E+02
  -3.220  0.2424E+01  0.2793E+02
  -3.210  0.2350E+01  0.2796E+02
  -3.200  0.2314E+01  0.2798E+02
  -3.190  0.2272E+01  0.2800E+02
  -3.180  0.2265E+01  0.2803E+02
  -3.170  0.2319E+01  0.2805E+02
  -3.160  0.2155E+01  0.2807E+02
  -3.150  0.2124E+01  0.2809E+02
  -3.140  0.2096E+01  0.2811E+02
  -3.130  0.2072E+01  0.2813E+02
  -3.120  0.2035E+01  0.2815E+02
  -3.110  0.2023E+01  0.2817E+02
  -3.100  0.2011E+01  0.2819E+02
  -3.090  0.2027E+01  0.2821E+02
  -3.080  0.1978E+01  0.2823E+02
  -3.070  0.1940E+01  0.2825E+02
  -3.060  0.1918E+01  0.2827E+02
  -3.050  0.1901E+01  0.2829E+02
  -3.040  0.1883E+01  0.2831E+02
  -3.030  0.1870E+01  0.2833E+02
  -3.020  0.1855E+01  0.2835E+02
  -3.010  0.1846E+01  0.2837E+02
  -3.000  0.1867E+01  0.2839E+02
  -2.990  0.1890E+01  0.2840E+02
  -2.980  0.1810E+01  0.2842E+02
  -2.970  0.1800E+01  0.2844E+02
  -2.960  0.1780E+01  0.2846E+02
  -2.950  0.1766E+01  0.2848E+02
  -2.940  0.1758E+01  0.2849E+02
  -2.930  0.1752E+01  0.2851E+02
  -2.920  0.1749E+01  0.2853E+02
  -2.910  0.1749E+01  0.2855E+02
  -2.900  0.1782E+01  0.2856E+02
  -2.890  0.1745E+01  0.2858E+02
  -2.880  0.1730E+01  0.2860E+02
  -2.870  0.1714E+01  0.2862E+02
  -2.860  0.1708E+01  0.2863E+02
  -2.850  0.1699E+01  0.2865E+02
  -2.840  0.1700E+01  0.2867E+02
  -2.830  0.1686E+01  0.2869E+02
  -2.820  0.1673E+01  0.2870E+02
  -2.810  0.1685E+01  0.2872E+02
  -2.800  0.1712E+01  0.2874E+02
  -2.790  0.1685E+01  0.2875E+02
  -2.780  0.1682E+01  0.2877E+02
  -2.770  0.1675E+01  0.2879E+02
  -2.760  0.1672E+01  0.2880E+02
  -2.750  0.1682E+01  0.2882E+02
  -2.740  0.1674E+01  0.2884E+02
  -2.730  0.1677E+01  0.2885E+02
  -2.720  0.1674E+01  0.2887E+02
  -2.710  0.1685E+01  0.2889E+02
  -2.700  0.1715E+01  0.2890E+02
  -2.690  0.1698E+01  0.2892E+02
  -2.680  0.1712E+01  0.2894E+02
  -2.670  0.1699E+01  0.2896E+02
  -2.660  0.1678E+01  0.2897E+02
  -2.650  0.1693E+01  0.2899E+02
  -2.640  0.1694E+01  0.2901E+02
  -2.630  0.1700E+01  0.2902E+02
  -2.620  0.1720E+01  0.2904E+02
  -2.610  0.1796E+01  0.2906E+02
  -2.600  0.1859E+01  0.2908E+02
  -2.590  0.1812E+01  0.2909E+02
  -2.580  0.1792E+01  0.2911E+02
  -2.570  0.1803E+01  0.2913E+02
  -2.560  0.1831E+01  0.2915E+02
  -2.550  0.1965E+01  0.2917E+02
  -2.540  0.1900E+01  0.2919E+02
  -2.530  0.1942E+01  0.2921E+02
  -2.520  0.1782E+01  0.2922E+02
  -2.510  0.1817E+01  0.2924E+02
  -2.500  0.1862E+01  0.2926E+02
  -2.490  0.1909E+01  0.2928E+02
  -2.480  0.1932E+01  0.2930E+02
  -2.470  0.1962E+01  0.2932E+02
  -2.460  0.2033E+01  0.2934E+02
  -2.450  0.2102E+01  0.2936E+02
  -2.440  0.2273E+01  0.2938E+02
  -2.430  0.2347E+01  0.2940E+02
  -2.420  0.2660E+01  0.2943E+02
  -2.410  0.2858E+01  0.2946E+02
  -2.400  0.3096E+01  0.2949E+02
  -2.390  0.3597E+01  0.2952E+02
  -2.380  0.8186E+01  0.2957E+02
  -2.370  0.1254E+02  0.2970E+02
  -2.360  0.8463E+01  0.2980E+02
  -2.350  0.8150E+01  0.2988E+02
  -2.340  0.7586E+00  0.2993E+02
  -2.330  0.6668E+00  0.2994E+02
  -2.320  0.5584E+00  0.2994E+02
  -2.310  0.5161E+00  0.2995E+02
  -2.300  0.4802E+00  0.2995E+02
  -2.290  0.4742E+00  0.2996E+02
  -2.280  0.4863E+00  0.2996E+02
  -2.270  0.4686E+00  0.2997E+02
  -2.260  0.4537E+00  0.2997E+02
  -2.250  0.4791E+00  0.2998E+02
  -2.240  0.4109E+00  0.2998E+02
  -2.230  0.4302E+00  0.2998E+02
  -2.220  0.3714E+00  0.2999E+02
  -2.210  0.4101E+00  0.2999E+02
  -2.200  0.3491E+00  0.3000E+02
  -2.190  0.3612E+00  0.3000E+02
  -2.180  0.0000E+00  0.3000E+02
  -2.170  0.0000E+00  0.3000E+02
  -2.160  0.0000E+00  0.3000E+02
  -2.150  0.0000E+00  0.3000E+02
  -2.140  0.0000E+00  0.3000E+02
  -2.130  0.0000E+00  0.3000E+02
  -2.120  0.0000E+00  0.3000E+02
  -2.110  0.0000E+00  0.3000E+02
  -2.100  0.0000E+00  0.3000E+02
  -2.090  0.0000E+00  0.3000E+02
  -2.080  0.0000E+00  0.3000E+02
  -2.070  0.0000E+00  0.3000E+02
  -2.060  0.0000E+00  0.3000E+02
  -2.050  0.0000E+00  0.3000E+02
  -2.040  0.0000E+00  0.3000E+02
  -2.030  0.0000E+00  0.3000E+02
  -2.020  0.0000E+00  0.3000E+02
  -2.010  0.0000E+00  0.3000E+02
  -2.000  0.0000E+00  0.3000E+02
  -1.990  0.0000E+00  0.3000E+02
  -1.980  0.0000E+00  0.3000E+02
  -1.970  0.0000E+00  0.3000E+02
  -1.960  0.0000E+00  0.3000E+02
  -1.950  0.0000E+00  0.3000E+02
  -1.940  0.0000E+00  0.3000E+02
  -1.930  0.0000E+00  0.3000E+02
  -1.920  0.0000E+00  0.3000E+02
  -1.910  0.0000E+00  0.3000E+02
  -1.900  0.0000E+00  0.3000E+02
  -1.890  0.0000E+00  0.3000E+02
  -1.880  0.0000E+00  0.3000E+02
  -1.870  0.0000E+00  0.3000E+02
  -1.860  0.0000E+00  0.3000E+02
  -1.850  0.0000E+00  0.3000E+02
  -1.840  0.0000E+00  0.3000E+02
  -1.830  0.0000E+00  0.3000E+02
  -1.820  0.0000E+00  0.3000E+02
  -1.810  0.0000E+00  0.3000E+02
  -1.800  0.0000E+00  0.3000E+02
  -1.790  0.0000E+00  0.3000E+02
  -1.780  0.0000E+00  0.3000E+02
  -1.770  0.0000E+00  0.3000E+02
  -1.760  0.0000E+00  0.3000E+02
  -1.750  0.0000E+00  0.3000E+02
  -1.740  0.0000E+00  0.3000E+02
  -1.730  0.0000E+00  0.3000E+02
  -1.720  0.0000E+00  0.3000E+02
  -1.710  0.0000E+00  0.3000E+02
  -1.700  0.0000E+00  0.3000E+02
  -1.690  0.0000E+00  0.3000E+02
  -1.680  0.0000E+00  0.3000E+02
  -1.670  0.0000E+00  0.3000E+02
  -1.660  0.0000E+00  0.3000E+02
  -1.650  0.0000E+00  0.3000E+02
  -1.640  0.0000E+00  0.3000E+02
  -1.630  0.0000E+00  0.3000E+02
  -1.620  0.0000E+00  0.3000E+02
  -1.610  0.0000E+00  0.3000E+02
  -1.600  0.0000E+00  0.3000E+02
  -1.590  0.0000E+00  0.3000E+02
  -1.580  0.0000E+00  0.3000E+02
  -1.570  0.0000E+00  0.3000E+02
  -1.560  0.0000E+00  0.3000E+02
  -1.550  0.0000E+00  0.3000E+02
  -1.540  0.0000E+00  0.3000E+02
  -1.530  0.0000E+00  0.3000E+02
  -1.520  0.0000E+00  0.3000E+02
  -1.510  0.0000E+00  0.3000E+02
  -1.500  0.0000E+00  0.3000E+02
  -1.490  0.0000E+00  0.3000E+02
  -1.480  0.0000E+00  0.3000E+02
  -1.470  0.0000E+00  0.3000E+02
  -1.460  0.0000E+00  0.3000E+02
  -1.450  0.0000E+00  0.3000E+02
  -1.440  0.0000E+00  0.3000E+02
  -1.430  0.0000E+00  0.3000E+02
  -1.420  0.0000E+00  0.3000E+02
  -1.410  0.0000E+00  0.3000E+02
  -1.400  0.0000E+00  0.3000E+02
  -1.390  0.0000E+00  0.3000E+02
  -1.380  0.0000E+00  0.3000E+02
  -1.370  0.0000E+00  0.3000E+02
  -1.360  0.0000E+00  0.3000E+02
  -1.350  0.0000E+00  0.3000E+02
  -1.340  0.0000E+00  0.3000E+02
  -1.330  0.0000E+00  0.3000E+02
  -1.320  0.0000E+00  0.3000E+02
  -1.310  0.0000E+00  0.3000E+02
  -1.300  0.0000E+00  0.3000E+02
  -1.290  0.0000E+00  0.3000E+02
  -1.280  0.0000E+00  0.3000E+02
  -1.270  0.0000E+00  0.3000E+02
  -1.260  0.0000E+00  0.3000E+02
  -1.250  0.0000E+00  0.3000E+02
  -1.240  0.0000E+00  0.3000E+02
  -1.230  0.0000E+00  0.3000E+02
  -1.220  0.0000E+00  0.3000E+02
  -1.210  0.0000E+00  0.3000E+02
  -1.200  0.0000E+00  0.3000E+02
  -1.190  0.0000E+00  0.3000E+02
  -1.180  0.0000E+00  0.3000E+02
  -1.170  0.0000E+00  0.3000E+02
  -1.160  0.0000E+00  0.3000E+02
  -1.150  0.0000E+00  0.3000E+02
  -1.140  0.0000E+00  0.3000E+02
  -1.130  0.0000E+00  0.3000E+02
  -1.120  0.0000E+00  0.3000E+02
  -1.110  0.0000E+00  0.3000E+02
  -1.100  0.0000E+00  0.3000E+02
  -1.090  0.0000E+00  0.3000E+02
  -1.080  0.0000E+00  0.3000E+02
  -1.070  0.0000E+00  0.3000E+02
  -1.060  0.0000E+00  0.3000E+02
  -1.050  0.0000E+00  0.3000E+02
  -1.040  0.0000E+00  0.3000E+02
  -1.030  0.0000E+00  0.3000E+02
  -1.020  0.0000E+00  0.3000E+02
  -1.010  0.0000E+00  0.3000E+02
  -1.000  0.0000E+00  0.3000E+02
  -0.990  0.0000E+00  0.3000E+02
  -0.980  0.0000E+00  0.3000E+02
  -0.970  0.0000E+00  0.3000E+02
  -0.960  0.0000E+00  0.3000E+02
  -0.950  0.0000E+00  0.3000E+02
  -0.940  0.0000E+00  0.3000E+02
  -0.930  0.0000E+00  0.3000E+02
  -0.920  0.0000E+00  0.3000E+02
  -0.910  0.0000E+00  0.3000E+02
  -0.900  0.0000E+00  0.3000E+02
  -0.890  0.0000E+00  0.3000E+02
  -0.880  0.0000E+00  0.3000E+02
  -0.870  0.0000E+00  0.3000E+02
  -0.860  0.0000E+00  0.3000E+02
  -0.850  0.0000E+00  0.3000E+02
  -0.840  0.0000E+00  0.3000E+02
  -0.830  0.0000E+00  0.3000E+02
  -0.820  0.0000E+00  0.3000E+02
  -0.810  0.0000E+00  0.3000E+02
  -0.800  0.0000E+00  0.3000E+02
  -0.790  0.0000E+00  0.3000E+02
  -0.780  0.0000E+00  0.3000E+02
  -0.770  0.0000E+00  0.3000E+02
  -0.760  0.0000E+00  0.3000E+02
  -0.750  0.0000E+00  0.3000E+02
  -0.740  0.0000E+00  0.3000E+02
  -0.730  0.0000E+00  0.3000E+02
  -0.720  0.0000E+00  0.3000E+02
  -0.710  0.0000E+00  0.3000E+02
  -0.700  0.0000E+00  0.3000E+02
  -0.690  0.0000E+00  0.3000E+02
  -0.680  0.0000E+00  0.3000E+02
  -0.670  0.0000E+00  0.3000E+02
  -0.660  0.0000E+00  0.3000E+02
  -0.650  0.0000E+00  0.3000E+02
  -0.640  0.0000E+00  0.3000E+02
  -0.630  0.0000E+00  0.3000E+02
  -0.620  0.0000E+00  0.3000E+02
  -0.610  0.0000E+00  0.3000E+02
  -0.600  0.0000E+00  0.3000E+02
  -0.590  0.0000E+00  0.3000E+02
  -0.580  0.0000E+00  0.3000E+02
  -0.570  0.0000E+00  0.3000E+02
  -0.560  0.0000E+00  0.3000E+02
  -0.550  0.0000E+00  0.3000E+02
  -0.540  0.0000E+00  0.3000E+02
  -0.530  0.0000E+00  0.3000E+02
  -0.520  0.0000E+00  0.3000E+02
  -0.510  0.0000E+00  0.3000E+02
  -0.500  0.0000E+00  0.3000E+02
  -0.490  0.0000E+00  0.3000E+02
  -0.480  0.0000E+00  0.3000E+02
  -0.470  0.0000E+00  0.3000E+02
  -0.460  0.0000E+00  0.3000E+02
  -0.450  0.0000E+00  0.3000E+02
  -0.440  0.0000E+00  0.3000E+02
  -0.430  0.0000E+00  0.3000E+02
  -0.420  0.0000E+00  0.3000E+02
  -0.410  0.0000E+00  0.3000E+02
  -0.400  0.0000E+00  0.3000E+02
  -0.390  0.0000E+00  0.3000E+02
  -0.380  0.2464E-01  0.3000E+02
  -0.370  0.9842E+00  0.3001E+02
  -0.360  0.1113E+01  0.3002E+02
  -0.350  0.1010E+01  0.3003E+02
  -0.340  0.1052E+01  0.3004E+02
  -0.330  0.1434E+01  0.3005E+02
  -0.320  0.1076E+01  0.3006E+02
  -0.310  0.1060E+01  0.3007E+02
  -0.300  0.1065E+01  0.3008E+02
  -0.290  0.1094E+01  0.3009E+02
  -0.280  0.1145E+01  0.3010E+02
  -0.270  0.1158E+01  0.3012E+02
  -0.260  0.1166E+01  0.3013E+02
  -0.250  0.1194E+01  0.3014E+02
  -0.240  0.1195E+01  0.3015E+02
  -0.230  0.1200E+01  0.3016E+02
  -0.220  0.1221E+01  0.3018E+02
  -0.210  0.1237E+01  0.3019E+02
  -0.200  0.1326E+01  0.3020E+02
  -0.190  0.1366E+01  0.3022E+02
  -0.180  0.1318E+01  0.3023E+02
  -0.170  0.1348E+01  0.3024E+02
  -0.160  0.1630E+01  0.3026E+02
  -0.150  0.1424E+01  0.3027E+02
  -0.140  0.1495E+01  0.3029E+02
  -0.130  0.1492E+01  0.3030E+02
  -0.120  0.1494E+01  0.3032E+02
  -0.110  0.1537E+01  0.3033E+02
  -0.100  0.1552E+01  0.3035E+02
  -0.090  0.1571E+01  0.3036E+02
  -0.080  0.1592E+01  0.3038E+02
  -0.070  0.1718E+01  0.3040E+02
  -0.060  0.2154E+01  0.3042E+02
  -0.050  0.2725E+01  0.3044E+02
  -0.040  0.2391E+01  0.3047E+02
  -0.030  0.2323E+01  0.3049E+02
  -0.020  0.2324E+01  0.3051E+02
  -0.010  0.2329E+01  0.3054E+02
   0.000  0.2205E+01  0.3056E+02
   0.010  0.2143E+01  0.3058E+02
   0.020  0.2160E+01  0.3060E+02
   0.030  0.2193E+01  0.3063E+02
   0.040  0.2189E+01  0.3065E+02
   0.050  0.2176E+01  0.3067E+02
   0.060  0.2168E+01  0.3069E+02
   0.070  0.2172E+01  0.3071E+02
   0.080  0.2200E+01  0.3073E+02
   0.090  0.2263E+01  0.3076E+02
   0.100  0.2292E+01  0.3078E+02
   0.110  0.2269E+01  0.3080E+02
   0.120  0.2252E+01  0.3082E+02
   0.130  0.2280E+01  0.3085E+02
   0.140  0.2298E+01  0.3087E+02
   0.150  0.2324E+01  0.3089E+02
   0.160  0.2357E+01  0.3092E+02
   0.170  0.2408E+01  0.3094E+02
   0.180  0.2457E+01  0.3096E+02
   0.190  0.2542E+01  0.3099E+02
   0.200  0.2552E+01  0.3102E+02
   0.210  0.2592E+01  0.3104E+02
   0.220  0.2737E+01  0.3107E+02
   0.230  0.2820E+01  0.3110E+02
   0.240  0.2934E+01  0.3112E+02
   0.250  0.3073E+01  0.3115E+02
   0.260  0.3120E+01  0.3119E+02
   0.270  0.3106E+01  0.3122E+02
   0.280  0.2973E+01  0.3125E+02
   0.290  0.3081E+01  0.3128E+02
   0.300  0.3023E+01  0.3131E+02
   0.310  0.3024E+01  0.3134E+02
   0.320  0.3126E+01  0.3137E+02
   0.330  0.3212E+01  0.3140E+02
   0.340  0.3520E+01  0.3143E+02
   0.350  0.3763E+01  0.3147E+02
   0.360  0.3841E+01  0.3151E+02
   0.370  0.3656E+01  0.3155E+02
   0.380  0.3614E+01  0.3158E+02
   0.390  0.3333E+01  0.3162E+02
   0.400  0.3303E+01  0.3165E+02
   0.410  0.3147E+01  0.3168E+02
   0.420  0.3617E+01  0.3172E+02
   0.430  0.3607E+01  0.3175E+02
   0.440  0.3870E+01  0.3179E+02
   0.450  0.2579E+01  0.3182E+02
   0.460  0.2448E+01  0.3185E+02
   0.470  0.2216E+01  0.3187E+02
   0.480  0.2083E+01  0.3189E+02
   0.490  0.1819E+01  0.3191E+02
   0.500  0.1407E+01  0.3193E+02
   0.510  0.1047E+01  0.3194E+02
   0.520  0.9877E+00  0.3195E+02
   0.530  0.7974E+00  0.3196E+02
   0.540  0.7199E+00  0.3197E+02
   0.550  0.6761E+00  0.3197E+02
   0.560  0.7069E+00  0.3198E+02
   0.570  0.8628E+00  0.3199E+02
   0.580  0.5136E+00  0.3199E+02
   0.590  0.2607E+00  0.3200E+02
   0.600  0.1240E-01  0.3200E+02
   0.610  0.0000E+00  0.3200E+02
   0.620  0.0000E+00  0.3200E+02
   0.630  0.0000E+00  0.3200E+02
   0.640  0.0000E+00  0.3200E+02
   0.650  0.0000E+00  0.3200E+02
   0.660  0.0000E+00  0.3200E+02
   0.670  0.0000E+00  0.3200E+02
   0.680  0.0000E+00  0.3200E+02
   0.690  0.0000E+00  0.3200E+02
   0.700  0.0000E+00  0.3200E+02
   0.710  0.0000E+00  0.3200E+02
   0.720  0.0000E+00  0.3200E+02
   0.730  0.0000E+00  0.3200E+02
   0.740  0.0000E+00  0.3200E+02
   0.750  0.0000E+00  0.3200E+02
   0.760  0.0000E+00  0.3200E+02
   0.770  0.0000E+00  0.3200E+02
   0.780  0.0000E+00  0.3200E+02
   0.790  0.0000E+00  0.3200E+02
   0.800  0.0000E+00  0.3200E+02
   0.810  0.0000E+00  0.3200E+02
   0.820  0.0000E+00  0.3200E+02
   0.830  0.0000E+00  0.3200E+02
   0.840  0.0000E+00  0.3200E+02
   0.850  0.7968E+00  0.3200E+02
   0.860  0.9562E+00  0.3201E+02
   0.870  0.2108E+01  0.3203E+02
   0.880  0.2394E+01  0.3205E+02
   0.890  0.1558E+01  0.3207E+02
   0.900  0.1289E+01  0.3208E+02
   0.910  0.1130E+01  0.3209E+02
   0.920  0.1091E+01  0.3210E+02
   0.930  0.1035E+01  0.3211E+02
   0.940  0.1028E+01  0.3212E+02
   0.950  0.1023E+01  0.3213E+02
   0.960  0.9511E+00  0.3214E+02
   0.970  0.9647E+00  0.3215E+02
   0.980  0.1255E+01  0.3217E+02
   0.990  0.1402E+01  0.3218E+02
   1.000  0.1735E+01  0.3219E+02
   1.010  0.1517E+01  0.3221E+02
   1.020  0.1592E+01  0.3223E+02
   1.030  0.1609E+01  0.3224E+02
   1.040  0.1687E+01  0.3226E+02
   1.050  0.1629E+01  0.3227E+02
   1.060  0.1669E+01  0.3229E+02
   1.070  0.1717E+01  0.3231E+02
   1.080  0.1790E+01  0.3233E+02
   1.090  0.1973E+01  0.3234E+02
   1.100  0.2428E+01  0.3237E+02
   1.110  0.2629E+01  0.3239E+02
   1.120  0.2949E+01  0.3242E+02
   1.130  0.2974E+01  0.3245E+02
   1.140  0.3133E+01  0.3248E+02
   1.150  0.3596E+01  0.3251E+02
   1.160  0.3658E+01  0.3255E+02
   1.170  0.4343E+01  0.3259E+02
   1.180  0.4752E+01  0.3264E+02
   1.190  0.4333E+01  0.3268E+02
   1.200  0.3832E+01  0.3273E+02
   1.210  0.3651E+01  0.3276E+02
   1.220  0.3588E+01  0.3280E+02
   1.230  0.3639E+01  0.3283E+02
   1.240  0.3759E+01  0.3287E+02
   1.250  0.3544E+01  0.3291E+02
   1.260  0.3463E+01  0.3294E+02
   1.270  0.3208E+01  0.3298E+02
   1.280  0.2855E+01  0.3301E+02
   1.290  0.2872E+01  0.3304E+02
   1.300  0.2970E+01  0.3307E+02
   1.310  0.2798E+01  0.3310E+02
   1.320  0.2771E+01  0.3312E+02
   1.330  0.2773E+01  0.3315E+02
   1.340  0.2606E+01  0.3318E+02
   1.350  0.2540E+01  0.3320E+02
   1.360  0.2507E+01  0.3323E+02
   1.370  0.2481E+01  0.3325E+02
   1.380  0.2479E+01  0.3328E+02
   1.390  0.2387E+01  0.3330E+02
   1.400  0.2360E+01  0.3333E+02
   1.410  0.2421E+01  0.3335E+02
   1.420  0.2325E+01  0.3337E+02
   1.430  0.2348E+01  0.3340E+02
   1.440  0.2271E+01  0.3342E+02
   1.450  0.2238E+01  0.3344E+02
   1.460  0.2167E+01  0.3346E+02
   1.470  0.2166E+01  0.3349E+02
   1.480  0.2137E+01  0.3351E+02
   1.490  0.2116E+01  0.3353E+02
   1.500  0.2097E+01  0.3355E+02
   1.510  0.2119E+01  0.3357E+02
   1.520  0.2247E+01  0.3359E+02
   1.530  0.2062E+01  0.3361E+02
   1.540  0.2119E+01  0.3364E+02
   1.550  0.2010E+01  0.3366E+02
   1.560  0.2011E+01  0.3368E+02
   1.570  0.2018E+01  0.3370E+02
   1.580  0.2010E+01  0.3372E+02
   1.590  0.2487E+01  0.3374E+02
   1.600  0.1991E+01  0.3376E+02
   1.610  0.1975E+01  0.3378E+02
   1.620  0.1950E+01  0.3380E+02
   1.630  0.1932E+01  0.3382E+02
   1.640  0.1923E+01  0.3384E+02
   1.650  0.2018E+01  0.3386E+02
   1.660  0.2065E+01  0.3388E+02
   1.670  0.2013E+01  0.3390E+02
   1.680  0.2076E+01  0.3392E+02
   1.690  0.1984E+01  0.3394E+02
   1.700  0.1927E+01  0.3396E+02
   1.710  0.3305E+01  0.3399E+02
   1.720  0.3651E+01  0.3402E+02
   1.730  0.4448E+01  0.3407E+02
   1.740  0.5025E+01  0.3411E+02
   1.750  0.6115E+01  0.3417E+02
   1.760  0.6102E+01  0.3423E+02
   1.770  0.5545E+01  0.3429E+02
   1.780  0.5054E+01  0.3434E+02
   1.790  0.4945E+01  0.3439E+02
   1.800  0.4665E+01  0.3444E+02
   1.810  0.4444E+01  0.3449E+02
   1.820  0.4205E+01  0.3453E+02
   1.830  0.4032E+01  0.3457E+02
   1.840  0.3792E+01  0.3461E+02
   1.850  0.3764E+01  0.3465E+02
   1.860  0.3785E+01  0.3469E+02
   1.870  0.4219E+01  0.3473E+02
   1.880  0.4006E+01  0.3477E+02
   1.890  0.4229E+01  0.3481E+02
   1.900  0.4406E+01  0.3485E+02
   1.910  0.4804E+01  0.3490E+02
   1.920  0.5023E+01  0.3494E+02
   1.930  0.5589E+01  0.3500E+02
   1.940  0.6609E+01  0.3506E+02
   1.950  0.5810E+01  0.3512E+02
   1.960  0.6412E+01  0.3518E+02
   1.970  0.6722E+01  0.3525E+02
   1.980  0.6653E+01  0.3532E+02
   1.990  0.6000E+01  0.3538E+02
   2.000  0.2586E+01  0.3541E+02
   2.010  0.2564E+01  0.3544E+02
   2.020  0.2598E+01  0.3546E+02
   2.030  0.2885E+01  0.3549E+02
   2.040  0.3112E+01  0.3552E+02
   2.050  0.3190E+01  0.3555E+02
   2.060  0.3245E+01  0.3559E+02
   2.070  0.2948E+01  0.3562E+02
   2.080  0.3019E+01  0.3565E+02
   2.090  0.3078E+01  0.3568E+02
   2.100  0.3027E+01  0.3571E+02
   2.110  0.3223E+01  0.3574E+02
   2.120  0.3907E+01  0.3578E+02
   2.130  0.4365E+01  0.3582E+02
   2.140  0.1767E+01  0.3585E+02
   2.150  0.1591E+01  0.3587E+02
   2.160  0.1614E+01  0.3588E+02
   2.170  0.1676E+01  0.3590E+02
   2.180  0.1453E+01  0.3591E+02
   2.190  0.1445E+01  0.3593E+02
   2.200  0.1297E+01  0.3594E+02
   2.210  0.1386E+01  0.3595E+02
   2.220  0.1349E+01  0.3597E+02
   2.230  0.1162E+01  0.3598E+02
   2.240  0.9165E+00  0.3599E+02
   2.250  0.8209E-01  0.3600E+02
   2.260  0.0000E+00  0.3600E+02
   2.270  0.0000E+00  0.3600E+02
   2.280  0.0000E+00  0.3600E+02
   2.290  0.0000E+00  0.3600E+02
   2.300  0.0000E+00  0.3600E+02
   2.310  0.0000E+00  0.3600E+02
   2.320  0.0000E+00  0.3600E+02
   2.330  0.0000E+00  0.3600E+02
   2.340  0.0000E+00  0.3600E+02
   2.350  0.0000E+00  0.3600E+02
   2.360  0.0000E+00  0.3600E+02
   2.370  0.0000E+00  0.3600E+02
   2.380  0.0000E+00  0.3600E+02
   2.390  0.0000E+00  0.3600E+02
   2.400  0.0000E+00  0.3600E+02
   2.410  0.0000E+00  0.3600E+02
   2.420  0.0000E+00  0.3600E+02
   2.430  0.0000E+00  0.3600E+02
   2.440  0.0000E+00  0.3600E+02
   2.450  0.0000E+00  0.3600E+02
   2.460  0.0000E+00  0.3600E+02
   2.470  0.0000E+00  0.3600E+02
   2.480  0.0000E+00  0.3600E+02
   2.490  0.0000E+00  0.3600E+02
   2.500  0.0000E+00  0.3600E+02
   2.510  0.0000E+00  0.3600E+02
   2.520  0.0000E+00  0.3600E+02
   2.530  0.0000E+00  0.3600E+02
   2.540  0.0000E+00  0.3600E+02
   2.550  0.0000E+00  0.3600E+02
   2.560  0.0000E+00  0.3600E+02
   2.570  0.0000E+00  0.3600E+02
   2.580  0.0000E+00  0.3600E+02
   2.590  0.0000E+00  0.3600E+02
   2.600  0.5749E+00  0.3600E+02
   2.610  0.5442E+00  0.3601E+02
   2.620  0.4497E+00  0.3601E+02
   2.630  0.5149E+00  0.3602E+02
   2.640  0.4425E+00  0.3602E+02
   2.650  0.4865E+00  0.3602E+02
   2.660  0.4723E+00  0.3603E+02
   2.670  0.4633E+00  0.3603E+02
   2.680  0.4663E+00  0.3604E+02
   2.690  0.4988E+00  0.3604E+02
   2.700  0.4866E+00  0.3605E+02
   2.710  0.4791E+00  0.3605E+02
   2.720  0.4773E+00  0.3606E+02
   2.730  0.4846E+00  0.3606E+02
   2.740  0.5110E+00  0.3607E+02
   2.750  0.5017E+00  0.3607E+02
   2.760  0.4840E+00  0.3608E+02
   2.770  0.4967E+00  0.3608E+02
   2.780  0.5018E+00  0.3609E+02
   2.790  0.5093E+00  0.3609E+02
   2.800  0.5318E+00  0.3610E+02
   2.810  0.5222E+00  0.3610E+02
   2.820  0.5152E+00  0.3611E+02
   2.830  0.5121E+00  0.3611E+02
   2.840  0.5328E+00  0.3612E+02
   2.850  0.5412E+00  0.3612E+02
   2.860  0.5504E+00  0.3613E+02
   2.870  0.5638E+00  0.3614E+02
   2.880  0.5626E+00  0.3614E+02
   2.890  0.1043E+01  0.3615E+02
   2.900  0.1011E+01  0.3616E+02
   2.910  0.1212E+01  0.3617E+02
   2.920  0.1073E+01  0.3618E+02
   2.930  0.1138E+01  0.3619E+02
   2.940  0.1167E+01  0.3621E+02
   2.950  0.1148E+01  0.3622E+02
   2.960  0.1172E+01  0.3623E+02
   2.970  0.1221E+01  0.3624E+02
   2.980  0.1192E+01  0.3625E+02
   2.990  0.1220E+01  0.3627E+02
   3.000  0.1241E+01  0.3628E+02
   3.010  0.1299E+01  0.3629E+02
   3.020  0.1283E+01  0.3630E+02
   3.030  0.1273E+01  0.3632E+02
   3.040  0.1290E+01  0.3633E+02
   3.050  0.1327E+01  0.3634E+02
   3.060  0.1356E+01  0.3636E+02
   3.070  0.1341E+01  0.3637E+02
   3.080  0.1361E+01  0.3638E+02
   3.090  0.1363E+01  0.3640E+02
   3.100  0.1372E+01  0.3641E+02
   3.110  0.1379E+01  0.3642E+02
   3.120  0.1382E+01  0.3644E+02
   3.130  0.1384E+01  0.3645E+02
   3.140  0.1391E+01  0.3646E+02
   3.150  0.1411E+01  0.3648E+02
   3.160  0.1399E+01  0.3649E+02
   3.170  0.1401E+01  0.3651E+02
   3.180  0.1382E+01  0.3652E+02
   3.190  0.1382E+01  0.3653E+02
   3.200  0.1384E+01  0.3655E+02
   3.210  0.1393E+01  0.3656E+02
   3.220  0.1403E+01  0.3658E+02
   3.230  0.1412E+01  0.3659E+02
   3.240  0.1382E+01  0.3660E+02
   3.250  0.1361E+01  0.3662E+02
   3.260  0.1356E+01  0.3663E+02
   3.270  0.1355E+01  0.3665E+02
   3.280  0.1364E+01  0.3666E+02
   3.290  0.1371E+01  0.3667E+02
   3.300  0.1382E+01  0.3669E+02
   3.310  0.1389E+01  0.3670E+02
   3.320  0.1342E+01  0.3671E+02
   3.330  0.1331E+01  0.3673E+02
   3.340  0.1331E+01  0.3674E+02
   3.350  0.1335E+01  0.3675E+02
   3.360  0.1339E+01  0.3677E+02
   3.370  0.1346E+01  0.3678E+02
   3.380  0.1353E+01  0.3679E+02
   3.390  0.1347E+01  0.3681E+02
   3.400  0.1350E+01  0.3682E+02
   3.410  0.1335E+01  0.3683E+02
   3.420  0.1322E+01  0.3685E+02
   3.430  0.1322E+01  0.3686E+02
   3.440  0.1325E+01  0.3687E+02
   3.450  0.1784E+01  0.3689E+02
   3.460  0.1832E+01  0.3691E+02
   3.470  0.1940E+01  0.3693E+02
   3.480  0.1835E+01  0.3695E+02
   3.490  0.1896E+01  0.3697E+02
   3.500  0.1901E+01  0.3698E+02
   3.510  0.1881E+01  0.3700E+02
   3.520  0.1889E+01  0.3702E+02
   3.530  0.1935E+01  0.3704E+02
   3.540  0.1889E+01  0.3706E+02
   3.550  0.1877E+01  0.3708E+02
   3.560  0.1887E+01  0.3710E+02
   3.570  0.1922E+01  0.3712E+02
   3.580  0.1900E+01  0.3714E+02
   3.590  0.1890E+01  0.3715E+02
   3.600  0.1916E+01  0.3717E+02
   3.610  0.1940E+01  0.3719E+02
   3.620  0.1967E+01  0.3721E+02
   3.630  0.1948E+01  0.3723E+02
   3.640  0.1920E+01  0.3725E+02
   3.650  0.2090E+01  0.3727E+02
   3.660  0.2956E+01  0.3730E+02
   3.670  0.2953E+01  0.3733E+02
   3.680  0.3057E+01  0.3736E+02
   3.690  0.3254E+01  0.3739E+02
   3.700  0.3001E+01  0.3742E+02
   3.710  0.3063E+01  0.3745E+02
   3.720  0.3158E+01  0.3748E+02
   3.730  0.3157E+01  0.3752E+02
   3.740  0.3122E+01  0.3755E+02
   3.750  0.3111E+01  0.3758E+02
   3.760  0.3152E+01  0.3761E+02
   3.770  0.3227E+01  0.3764E+02
   3.780  0.3246E+01  0.3767E+02
   3.790  0.3213E+01  0.3771E+02
   3.800  0.3248E+01  0.3774E+02
   3.810  0.3300E+01  0.3777E+02
   3.820  0.3352E+01  0.3781E+02
   3.830  0.3398E+01  0.3784E+02
   3.840  0.3494E+01  0.3787E+02
   3.850  0.3503E+01  0.3791E+02
   3.860  0.3548E+01  0.3794E+02
   3.870  0.3657E+01  0.3798E+02
   3.880  0.3807E+01  0.3802E+02
   3.890  0.3995E+01  0.3806E+02
   3.900  0.4269E+01  0.3810E+02
   3.910  0.4260E+01  0.3814E+02
   3.920  0.4201E+01  0.3818E+02
   3.930  0.4243E+01  0.3822E+02
   3.940  0.3718E+01  0.3826E+02
   3.950  0.3783E+01  0.3830E+02
   3.960  0.3662E+01  0.3834E+02
   3.970  0.3469E+01  0.3837E+02
   3.980  0.3311E+01  0.3841E+02
   3.990  0.3201E+01  0.3844E+02
   4.000  0.3101E+01  0.3847E+02
   4.010  0.3117E+01  0.3850E+02
   4.020  0.3081E+01  0.3853E+02
   4.030  0.3098E+01  0.3856E+02
   4.040  0.3046E+01  0.3859E+02
   4.050  0.2889E+01  0.3862E+02
   4.060  0.2795E+01  0.3865E+02
   4.070  0.2734E+01  0.3868E+02
   4.080  0.2700E+01  0.3871E+02
   4.090  0.2668E+01  0.3873E+02
   4.100  0.2629E+01  0.3876E+02
   4.110  0.2591E+01  0.3879E+02
   4.120  0.2547E+01  0.3881E+02
   4.130  0.2511E+01  0.3884E+02
   4.140  0.2485E+01  0.3886E+02
   4.150  0.2510E+01  0.3889E+02
   4.160  0.2390E+01  0.3891E+02
   4.170  0.2344E+01  0.3894E+02
   4.180  0.2323E+01  0.3896E+02
   4.190  0.2279E+01  0.3898E+02
   4.200  0.2252E+01  0.3900E+02
   4.210  0.2226E+01  0.3903E+02
   4.220  0.2203E+01  0.3905E+02
   4.230  0.2187E+01  0.3907E+02
   4.240  0.2154E+01  0.3909E+02
   4.250  0.2125E+01  0.3911E+02
   4.260  0.2068E+01  0.3913E+02
   4.270  0.2041E+01  0.3916E+02
   4.280  0.2018E+01  0.3918E+02
   4.290  0.2012E+01  0.3920E+02
   4.300  0.1996E+01  0.3922E+02
   4.310  0.1988E+01  0.3924E+02
   4.320  0.1952E+01  0.3926E+02
   4.330  0.1930E+01  0.3927E+02
   4.340  0.1922E+01  0.3929E+02
   4.350  0.1907E+01  0.3931E+02
   4.360  0.1891E+01  0.3933E+02
   4.370  0.1877E+01  0.3935E+02
   4.380  0.1852E+01  0.3937E+02
   4.390  0.1827E+01  0.3939E+02
   4.400  0.1808E+01  0.3941E+02
   4.410  0.1798E+01  0.3942E+02
   4.420  0.2225E+01  0.3945E+02
   4.430  0.2218E+01  0.3947E+02
   4.440  0.2322E+01  0.3949E+02
   4.450  0.2237E+01  0.3951E+02
   4.460  0.2282E+01  0.3954E+02
   4.470  0.2324E+01  0.3956E+02
   4.480  0.2312E+01  0.3958E+02
   4.490  0.2359E+01  0.3961E+02
   4.500  0.2382E+01  0.3963E+02
   4.510  0.2404E+01  0.3965E+02
   4.520  0.2428E+01  0.3968E+02
   4.530  0.2503E+01  0.3970E+02
   4.540  0.2491E+01  0.3973E+02
   4.550  0.2551E+01  0.3975E+02
   4.560  0.2624E+01  0.3978E+02
   4.570  0.3239E+01  0.3981E+02
   4.580  0.4386E+01  0.3985E+02
   4.590  0.4597E+01  0.3989E+02
   4.600  0.5087E+01  0.3994E+02
   4.610  0.7261E+01  0.4000E+02
   4.620  0.5016E+01  0.4006E+02
   4.630  0.4413E+01  0.4011E+02
   4.640  0.4046E+01  0.4015E+02
   4.650  0.3819E+01  0.4019E+02
   4.660  0.3604E+01  0.4022E+02
   4.670  0.3501E+01  0.4026E+02
   4.680  0.3335E+01  0.4029E+02
   4.690  0.3232E+01  0.4033E+02
   4.700  0.3160E+01  0.4036E+02
   4.710  0.3134E+01  0.4039E+02
   4.720  0.3111E+01  0.4042E+02
   4.730  0.3076E+01  0.4045E+02
   4.740  0.3057E+01  0.4048E+02
   4.750  0.3040E+01  0.4051E+02
   4.760  0.3046E+01  0.4054E+02
   4.770  0.3067E+01  0.4057E+02
   4.780  0.3129E+01  0.4061E+02
   4.790  0.3132E+01  0.4064E+02
   4.800  0.3167E+01  0.4067E+02
   4.810  0.3293E+01  0.4070E+02
   4.820  0.3696E+01  0.4074E+02
   4.830  0.3778E+01  0.4077E+02
   4.840  0.4779E+01  0.4081E+02
   4.850  0.4646E+01  0.4086E+02
   4.860  0.3774E+01  0.4091E+02
   4.870  0.3450E+01  0.4094E+02
   4.880  0.3185E+01  0.4098E+02
   4.890  0.3037E+01  0.4101E+02
   4.900  0.2923E+01  0.4104E+02
   4.910  0.2839E+01  0.4107E+02
   4.920  0.2766E+01  0.4109E+02
   4.930  0.2718E+01  0.4112E+02
   4.940  0.2674E+01  0.4115E+02
   4.950  0.2631E+01  0.4117E+02
   4.960  0.2600E+01  0.4120E+02
   4.970  0.2575E+01  0.4123E+02
   4.980  0.2553E+01  0.4125E+02
   4.990  0.2540E+01  0.4128E+02
   5.000  0.2533E+01  0.4130E+02
   5.010  0.2502E+01  0.4133E+02
   5.020  0.2478E+01  0.4135E+02
   5.030  0.2454E+01  0.4138E+02
   5.040  0.2431E+01  0.4140E+02
   5.050  0.2411E+01  0.4143E+02
   5.060  0.2397E+01  0.4145E+02
   5.070  0.2382E+01  0.4147E+02
   5.080  0.2373E+01  0.4150E+02
   5.090  0.2365E+01  0.4152E+02
   5.100  0.2357E+01  0.4154E+02
   5.110  0.2351E+01  0.4157E+02
   5.120  0.2344E+01  0.4159E+02
   5.130  0.2345E+01  0.4162E+02
   5.140  0.2345E+01  0.4164E+02
   5.150  0.2345E+01  0.4166E+02
   5.160  0.2345E+01  0.4169E+02
   5.170  0.2347E+01  0.4171E+02
   5.180  0.2351E+01  0.4173E+02
   5.190  0.2542E+01  0.4176E+02
   5.200  0.3008E+01  0.4179E+02
   5.210  0.2897E+01  0.4181E+02
   5.220  0.2906E+01  0.4184E+02
   5.230  0.2925E+01  0.4187E+02
   5.240  0.3534E+01  0.4190E+02
   5.250  0.3880E+01  0.4194E+02
   5.260  0.3773E+01  0.4198E+02
   5.270  0.3340E+01  0.4201E+02
   5.280  0.3142E+01  0.4205E+02
   5.290  0.3109E+01  0.4208E+02
   5.300  0.2980E+01  0.4211E+02
   5.310  0.2970E+01  0.4214E+02
   5.320  0.3073E+01  0.4217E+02
   5.330  0.3182E+01  0.4220E+02
   5.340  0.3373E+01  0.4223E+02
   5.350  0.3452E+01  0.4227E+02
   5.360  0.4051E+01  0.4230E+02
   5.370  0.5593E+01  0.4235E+02
   5.380  0.6156E+01  0.4241E+02
   5.390  0.6785E+01  0.4248E+02
   5.400  0.7818E+01  0.4256E+02
   5.410  0.6760E+01  0.4263E+02
   5.420  0.5644E+01  0.4269E+02
   5.430  0.5135E+01  0.4274E+02
   5.440  0.5792E+01  0.4280E+02
   5.450  0.4338E+01  0.4284E+02
   5.460  0.4001E+01  0.4289E+02
   5.470  0.3785E+01  0.4293E+02
   5.480  0.3761E+01  0.4296E+02
   5.490  0.3620E+01  0.4300E+02
   5.500  0.3670E+01  0.4304E+02
   5.510  0.3725E+01  0.4307E+02
   5.520  0.4037E+01  0.4311E+02
   5.530  0.4362E+01  0.4315E+02
   5.540  0.4447E+01  0.4320E+02
   5.550  0.4681E+01  0.4324E+02
   5.560  0.4709E+01  0.4329E+02
   5.570  0.4429E+01  0.4334E+02
   5.580  0.5082E+01  0.4338E+02
   5.590  0.5311E+01  0.4344E+02
   5.600  0.4988E+01  0.4349E+02
   5.610  0.4827E+01  0.4354E+02
   5.620  0.4601E+01  0.4358E+02
   5.630  0.4473E+01  0.4363E+02
   5.640  0.4482E+01  0.4367E+02
   5.650  0.4417E+01  0.4372E+02
   5.660  0.4151E+01  0.4376E+02
   5.670  0.4025E+01  0.4380E+02
   5.680  0.3973E+01  0.4384E+02
   5.690  0.3949E+01  0.4388E+02
   5.700  0.3896E+01  0.4392E+02
   5.710  0.3778E+01  0.4396E+02
   5.720  0.3709E+01  0.4400E+02
   5.730  0.3722E+01  0.4403E+02
   5.740  0.3740E+01  0.4407E+02
   5.750  0.3699E+01  0.4411E+02
   5.760  0.3831E+01  0.4415E+02
   5.770  0.3811E+01  0.4418E+02
   5.780  0.3819E+01  0.4422E+02
   5.790  0.3848E+01  0.4426E+02
   5.800  0.3834E+01  0.4430E+02
   5.810  0.4023E+01  0.4434E+02
   5.820  0.4375E+01  0.4438E+02
   5.830  0.4572E+01  0.4442E+02
   5.840  0.4793E+01  0.4447E+02
   5.850  0.4609E+01  0.4452E+02
   5.860  0.4798E+01  0.4457E+02
   5.870  0.4362E+01  0.4461E+02
   5.880  0.4236E+01  0.4466E+02
   5.890  0.4236E+01  0.4470E+02
   5.900  0.4210E+01  0.4474E+02
   5.910  0.4132E+01  0.4478E+02
   5.920  0.4085E+01  0.4482E+02
   5.930  0.4024E+01  0.4486E+02
   5.940  0.4065E+01  0.4490E+02
   5.950  0.4321E+01  0.4495E+02
   5.960  0.4642E+01  0.4499E+02
   5.970  0.4897E+01  0.4504E+02
   5.980  0.5031E+01  0.4509E+02
   5.990  0.5196E+01  0.4514E+02
   6.000  0.4872E+01  0.4519E+02
   6.010  0.5051E+01  0.4524E+02
   6.020  0.5247E+01  0.4529E+02
   6.030  0.5229E+01  0.4535E+02
   6.040  0.4994E+01  0.4540E+02
   6.050  0.4935E+01  0.4545E+02
   6.060  0.5089E+01  0.4550E+02
   6.070  0.4694E+01  0.4554E+02
   6.080  0.4705E+01  0.4559E+02
   6.090  0.4684E+01  0.4564E+02
   6.100  0.4785E+01  0.4569E+02
   6.110  0.4451E+01  0.4573E+02
   6.120  0.4300E+01  0.4578E+02
   6.130  0.4037E+01  0.4582E+02
   6.140  0.3828E+01  0.4586E+02
   6.150  0.3802E+01  0.4590E+02
   6.160  0.3910E+01  0.4594E+02
   6.170  0.4098E+01  0.4598E+02
   6.180  0.4390E+01  0.4602E+02
   6.190  0.4420E+01  0.4606E+02
   6.200  0.5096E+01  0.4611E+02
   6.210  0.5446E+01  0.4616E+02
   6.220  0.5231E+01  0.4622E+02
   6.230  0.5062E+01  0.4627E+02
   6.240  0.6052E+01  0.4632E+02
   6.250  0.6074E+01  0.4638E+02
   6.260  0.5609E+01  0.4644E+02
   6.270  0.5193E+01  0.4649E+02
   6.280  0.5076E+01  0.4655E+02
   6.290  0.4954E+01  0.4660E+02
   6.300  0.4915E+01  0.4665E+02
   6.310  0.5266E+01  0.4670E+02
   6.320  0.4572E+01  0.4675E+02
   6.330  0.3160E+01  0.4679E+02
   6.340  0.3374E+01  0.4682E+02
   6.350  0.3365E+01  0.4686E+02
   6.360  0.3862E+01  0.4689E+02
   6.370  0.3615E+01  0.4693E+02
   6.380  0.3215E+01  0.4696E+02
   6.390  0.2904E+01  0.4699E+02
   6.400  0.2879E+01  0.4702E+02
   6.410  0.2967E+01  0.4705E+02
   6.420  0.2821E+01  0.4708E+02
   6.430  0.2856E+01  0.4711E+02
   6.440  0.2889E+01  0.4714E+02
   6.450  0.2861E+01  0.4717E+02
   6.460  0.2843E+01  0.4719E+02
   6.470  0.2814E+01  0.4722E+02
   6.480  0.2777E+01  0.4725E+02
   6.490  0.2695E+01  0.4728E+02
   6.500  0.2659E+01  0.4730E+02
   6.510  0.2661E+01  0.4733E+02
   6.520  0.2663E+01  0.4736E+02
   6.530  0.2626E+01  0.4738E+02
   6.540  0.2672E+01  0.4741E+02
   6.550  0.2621E+01  0.4744E+02
   6.560  0.2650E+01  0.4746E+02
   6.570  0.2703E+01  0.4749E+02
   6.580  0.2717E+01  0.4752E+02
   6.590  0.2688E+01  0.4754E+02
   6.600  0.2653E+01  0.4757E+02
   6.610  0.2429E+01  0.4760E+02
   6.620  0.2351E+01  0.4762E+02
   6.630  0.2367E+01  0.4764E+02
   6.640  0.2189E+01  0.4767E+02
   6.650  0.2051E+01  0.4769E+02
   6.660  0.1977E+01  0.4771E+02
   6.670  0.1817E+01  0.4773E+02
   6.680  0.1701E+01  0.4774E+02
   6.690  0.1584E+01  0.4776E+02
   6.700  0.1454E+01  0.4778E+02
   6.710  0.1418E+01  0.4779E+02
   6.720  0.1404E+01  0.4780E+02
   6.730  0.1314E+01  0.4782E+02
   6.740  0.1240E+01  0.4783E+02
   6.750  0.1151E+01  0.4784E+02
   6.760  0.1198E+01  0.4785E+02
   6.770  0.1252E+01  0.4787E+02
   6.780  0.1249E+01  0.4788E+02
   6.790  0.1253E+01  0.4789E+02
   6.800  0.1145E+01  0.4790E+02
   6.810  0.1023E+01  0.4791E+02
   6.820  0.1005E+01  0.4792E+02
   6.830  0.9220E+00  0.4793E+02
   6.840  0.6268E+00  0.4794E+02
   6.850  0.8639E+00  0.4795E+02
   6.860  0.4046E+00  0.4795E+02
   6.870  0.3671E+00  0.4796E+02
   6.880  0.3326E+00  0.4796E+02
   6.890  0.3186E+00  0.4796E+02
   6.900  0.3056E+00  0.4797E+02
   6.910  0.2976E+00  0.4797E+02
   6.920  0.2928E+00  0.4797E+02
   6.930  0.2879E+00  0.4798E+02
   6.940  0.2802E+00  0.4798E+02
   6.950  0.2720E+00  0.4798E+02
   6.960  0.2594E+00  0.4799E+02
   6.970  0.2430E+00  0.4799E+02
   6.980  0.2135E+00  0.4799E+02
   6.990  0.1792E+00  0.4799E+02
   7.000  0.1449E+00  0.4799E+02
   7.010  0.1231E+00  0.4799E+02
   7.020  0.1044E+00  0.4800E+02
   7.030  0.9343E-01  0.4800E+02
   7.040  0.8702E-01  0.4800E+02
   7.050  0.6935E-01  0.4800E+02
   7.060  0.5167E-01  0.4800E+02
   7.070  0.3400E-01  0.4800E+02
   7.080  0.1632E-01  0.4800E+02
   7.090  0.3628E-02  0.4800E+02
   7.100  0.0000E+00  0.4800E+02
   7.110  0.0000E+00  0.4800E+02
   7.120  0.0000E+00  0.4800E+02
   7.130  0.0000E+00  0.4800E+02
   7.140  0.0000E+00  0.4800E+02
   7.150  0.0000E+00  0.4800E+02
   7.160  0.0000E+00  0.4800E+02
   7.170  0.0000E+00  0.4800E+02
   7.180  0.0000E+00  0.4800E+02
   7.190  0.0000E+00  0.4800E+02
   7.200  0.0000E+00  0.4800E+02
   7.210  0.0000E+00  0.4800E+02
   7.220  0.0000E+00  0.4800E+02
   7.230  0.0000E+00  0.4800E+02
   7.240  0.0000E+00  0.4800E+02
   7.250  0.0000E+00  0.4800E+02
   7.260  0.0000E+00  0.4800E+02
   7.270  0.0000E+00  0.4800E+02
   7.280  0.0000E+00  0.4800E+02
   7.290  0.0000E+00  0.4800E+02
   7.300  0.0000E+00  0.4800E+02
   7.310  0.0000E+00  0.4800E+02
   7.320  0.0000E+00  0.4800E+02
   7.330  0.0000E+00  0.4800E+02
   7.340  0.0000E+00  0.4800E+02
   7.350  0.0000E+00  0.4800E+02
   7.360  0.0000E+00  0.4800E+02
   7.370  0.0000E+00  0.4800E+02
   7.380  0.0000E+00  0.4800E+02
   7.390  0.0000E+00  0.4800E+02
   7.400  0.0000E+00  0.4800E+02
   7.410  0.0000E+00  0.4800E+02
   7.420  0.0000E+00  0.4800E+02
   7.430  0.0000E+00  0.4800E+02
   7.440  0.0000E+00  0.4800E+02
   7.450  0.0000E+00  0.4800E+02
   7.460  0.0000E+00  0.4800E+02
   7.470  0.0000E+00  0.4800E+02
   7.480  0.0000E+00  0.4800E+02
   7.490  0.0000E+00  0.4800E+02
   7.500  0.0000E+00  0.4800E+02
   7.510  0.0000E+00  0.4800E+02
   7.520  0.0000E+00  0.4800E+02
   7.530  0.0000E+00  0.4800E+02
   7.540  0.0000E+00  0.4800E+02
   7.550  0.0000E+00  0.4800E+02
   7.560  0.0000E+00  0.4800E+02
   7.570  0.0000E+00  0.4800E+02
   7.580  0.0000E+00  0.4800E+02
   7.590  0.0000E+00  0.4800E+02
   7.600  0.0000E+00  0.4800E+02
   7.610  0.0000E+00  0.4800E+02
   7.620  0.0000E+00  0.4800E+02
   7.630  0.0000E+00  0.4800E+02
   7.640  0.0000E+00  0.4800E+02
   7.650  0.0000E+00  0.4800E+02
   7.660  0.0000E+00  0.4800E+02
   7.670  0.0000E+00  0.4800E+02
   7.680  0.0000E+00  0.4800E+02
   7.690  0.0000E+00  0.4800E+02
   7.700  0.0000E+00  0.4800E+02
   7.710  0.0000E+00  0.4800E+02
   7.720  0.0000E+00  0.4800E+02
   7.730  0.0000E+00  0.4800E+02
   7.740  0.0000E+00  0.4800E+02
   7.750  0.0000E+00  0.4800E+02
   7.760  0.0000E+00  0.4800E+02
   7.770  0.0000E+00  0.4800E+02
   7.780  0.0000E+00  0.4800E+02
   7.790  0.0000E+00  0.4800E+02
   7.800  0.0000E+00  0.4800E+02
   7.810  0.0000E+00  0.4800E+02
   7.820  0.0000E+00  0.4800E+02
   7.830  0.0000E+00  0.4800E+02
   7.840  0.0000E+00  0.4800E+02
   7.850  0.0000E+00  0.4800E+02
   7.860  0.0000E+00  0.4800E+02
   7.870  0.0000E+00  0.4800E+02
   7.880  0.0000E+00  0.4800E+02
   7.890  0.0000E+00  0.4800E+02
   7.900  0.0000E+00  0.4800E+02
   7.910  0.0000E+00  0.4800E+02
   7.920  0.0000E+00  0.4800E+02
   7.930  0.0000E+00  0.4800E+02
   7.940  0.0000E+00  0.4800E+02
   7.950  0.0000E+00  0.4800E+02
   7.960  0.0000E+00  0.4800E+02
   7.970  0.0000E+00  0.4800E+02
   7.980  0.0000E+00  0.4800E+02
   7.990  0.0000E+00  0.4800E+02
   8.000  0.0000E+00  0.4800E+02
   8.010  0.0000E+00  0.4800E+02
   8.020  0.0000E+00  0.4800E+02
   8.030  0.0000E+00  0.4800E+02
   8.040  0.0000E+00  0.4800E+02
   8.050  0.0000E+00  0.4800E+02
   8.060  0.0000E+00  0.4800E+02
   8.070  0.0000E+00  0.4800E+02
   8.080  0.0000E+00  0.4800E+02
   8.090  0.0000E+00  0.4800E+02
   8.100  0.0000E+00  0.4800E+02
   8.110  0.0000E+00  0.4800E+02
   8.120  0.0000E+00  0.4800E+02
   8.130  0.0000E+00  0.4800E+02
   8.140  0.0000E+00  0.4800E+02
   8.150  0.0000E+00  0.4800E+02
   8.160  0.0000E+00  0.4800E+02
   8.170  0.0000E+00  0.4800E+02
   8.180  0.0000E+00  0.4800E+02
   8.190  0.0000E+00  0.4800E+02
   8.200  0.0000E+00  0.4800E+02
   8.210  0.0000E+00  0.4800E+02
   8.220  0.0000E+00  0.4800E+02
   8.230  0.0000E+00  0.4800E+02
   8.240  0.0000E+00  0.4800E+02
   8.250  0.0000E+00  0.4800E+02
   8.260  0.0000E+00  0.4800E+02
   8.270  0.0000E+00  0.4800E+02
   8.280  0.0000E+00  0.4800E+02
   8.290  0.0000E+00  0.4800E+02
   8.300  0.0000E+00  0.4800E+02
   8.310  0.0000E+00  0.4800E+02
   8.320  0.0000E+00  0.4800E+02
   8.330  0.0000E+00  0.4800E+02
   8.340  0.0000E+00  0.4800E+02
   8.350  0.0000E+00  0.4800E+02
   8.360  0.0000E+00  0.4800E+02
   8.370  0.0000E+00  0.4800E+02
   8.380  0.0000E+00  0.4800E+02
   8.390  0.0000E+00  0.4800E+02
   8.400  0.0000E+00  0.4800E+02
   8.410  0.0000E+00  0.4800E+02
   8.420  0.0000E+00  0.4800E+02
   8.430  0.0000E+00  0.4800E+02
   8.440  0.0000E+00  0.4800E+02
   8.450  0.0000E+00  0.4800E+02
   8.460  0.0000E+00  0.4800E+02
   8.470  0.0000E+00  0.4800E+02
   8.480  0.0000E+00  0.4800E+02
   8.490  0.0000E+00  0.4800E+02
   8.500  0.0000E+00  0.4800E+02
   8.510  0.0000E+00  0.4800E+02
   8.520  0.0000E+00  0.4800E+02
   8.530  0.0000E+00  0.4800E+02
   8.540  0.0000E+00  0.4800E+02
   8.550  0.0000E+00  0.4800E+02
   8.560  0.0000E+00  0.4800E+02
   8.570  0.0000E+00  0.4800E+02
   8.580  0.0000E+00  0.4800E+02
   8.590  0.0000E+00  0.4800E+02
   8.600  0.0000E+00  0.4800E+02
   8.610  0.0000E+00  0.4800E+02
   8.620  0.0000E+00  0.4800E+02
   8.630  0.0000E+00  0.4800E+02
   8.640  0.0000E+00  0.4800E+02
   8.650  0.0000E+00  0.4800E+02
   8.660  0.0000E+00  0.4800E+02
   8.670  0.0000E+00  0.4800E+02
   8.680  0.0000E+00  0.4800E+02
   8.690  0.0000E+00  0.4800E+02
   8.700  0.0000E+00  0.4800E+02
   8.710  0.0000E+00  0.4800E+02
   8.720  0.0000E+00  0.4800E+02
   8.730  0.0000E+00  0.4800E+02
   8.740  0.0000E+00  0.4800E+02
   8.750  0.0000E+00  0.4800E+02
   8.760  0.0000E+00  0.4800E+02
   8.770  0.0000E+00  0.4800E+02
   8.780  0.0000E+00  0.4800E+02
   8.790  0.0000E+00  0.4800E+02
   8.800  0.0000E+00  0.4800E+02
   8.810  0.0000E+00  0.4800E+02
   8.820  0.0000E+00  0.4800E+02
   8.830  0.0000E+00  0.4800E+02
   8.840  0.0000E+00  0.4800E+02
   8.850  0.0000E+00  0.4800E+02
   8.860  0.0000E+00  0.4800E+02
   8.870  0.0000E+00  0.4800E+02
   8.880  0.0000E+00  0.4800E+02
   8.890  0.0000E+00  0.4800E+02
   8.900  0.0000E+00  0.4800E+02
   8.910  0.0000E+00  0.4800E+02
   8.920  0.0000E+00  0.4800E+02
   8.930  0.0000E+00  0.4800E+02
   8.940  0.0000E+00  0.4800E+02
   8.950  0.0000E+00  0.4800E+02
   8.960  0.0000E+00  0.4800E+02
   8.970  0.0000E+00  0.4800E+02
   8.980  0.0000E+00  0.4800E+02
   8.990  0.0000E+00  0.4800E+02
   9.000  0.0000E+00  0.4800E+02
   9.010  0.0000E+00  0.4800E+02
   9.020  0.0000E+00  0.4800E+02
   9.030  0.0000E+00  0.4800E+02
   9.040  0.0000E+00  0.4800E+02
   9.050  0.0000E+00  0.4800E+02
   9.060  0.0000E+00  0.4800E+02
   9.070  0.0000E+00  0.4800E+02
   9.080  0.0000E+00  0.4800E+02
   9.090  0.0000E+00  0.4800E+02
   9.100  0.0000E+00  0.4800E+02
   9.110  0.0000E+00  0.4800E+02
   9.120  0.0000E+00  0.4800E+02
   9.130  0.0000E+00  0.4800E+02
   9.140  0.0000E+00  0.4800E+02
   9.150  0.0000E+00  0.4800E+02
   9.160  0.0000E+00  0.4800E+02
   9.170  0.0000E+00  0.4800E+02
   9.180  0.0000E+00  0.4800E+02
   9.190  0.0000E+00  0.4800E+02
   9.200  0.0000E+00  0.4800E+02
   9.210  0.0000E+00  0.4800E+02
   9.220  0.0000E+00  0.4800E+02
   9.230  0.0000E+00  0.4800E+02
   9.240  0.0000E+00  0.4800E+02
   9.250  0.0000E+00  0.4800E+02
   9.260  0.0000E+00  0.4800E+02
   9.270  0.0000E+00  0.4800E+02
   9.280  0.0000E+00  0.4800E+02
   9.290  0.0000E+00  0.4800E+02
   9.300  0.0000E+00  0.4800E+02
   9.310  0.0000E+00  0.4800E+02
   9.320  0.0000E+00  0.4800E+02
   9.330  0.0000E+00  0.4800E+02
   9.340  0.0000E+00  0.4800E+02
   9.350  0.0000E+00  0.4800E+02
   9.360  0.0000E+00  0.4800E+02
   9.370  0.0000E+00  0.4800E+02
   9.380  0.0000E+00  0.4800E+02
   9.390  0.0000E+00  0.4800E+02
   9.400  0.0000E+00  0.4800E+02
   9.410  0.0000E+00  0.4800E+02
   9.420  0.0000E+00  0.4800E+02
   9.430  0.0000E+00  0.4800E+02
   9.440  0.0000E+00  0.4800E+02
   9.450  0.0000E+00  0.4800E+02
   9.460  0.0000E+00  0.4800E+02
   9.470  0.0000E+00  0.4800E+02
   9.480  0.0000E+00  0.4800E+02
   9.490  0.0000E+00  0.4800E+02
   9.500  0.0000E+00  0.4800E+02
   9.510  0.0000E+00  0.4800E+02
   9.520  0.0000E+00  0.4800E+02
   9.530  0.0000E+00  0.4800E+02
   9.540  0.0000E+00  0.4800E+02
   9.550  0.0000E+00  0.4800E+02
   9.560  0.0000E+00  0.4800E+02
   9.570  0.0000E+00  0.4800E+02
   9.580  0.0000E+00  0.4800E+02
   9.590  0.0000E+00  0.4800E+02
   9.600  0.0000E+00  0.4800E+02
   9.610  0.0000E+00  0.4800E+02
   9.620  0.0000E+00  0.4800E+02
   9.630  0.0000E+00  0.4800E+02
   9.640  0.0000E+00  0.4800E+02
   9.650  0.0000E+00  0.4800E+02
   9.660  0.0000E+00  0.4800E+02
   9.670  0.0000E+00  0.4800E+02
   9.680  0.0000E+00  0.4800E+02
   9.690  0.0000E+00  0.4800E+02
   9.700  0.0000E+00  0.4800E+02
   9.710  0.0000E+00  0.4800E+02
   9.720  0.0000E+00  0.4800E+02
   9.730  0.0000E+00  0.4800E+02
   9.740  0.0000E+00  0.4800E+02
   9.750  0.0000E+00  0.4800E+02
   9.760  0.0000E+00  0.4800E+02
   9.770  0.0000E+00  0.4800E+02
   9.780  0.0000E+00  0.4800E+02
   9.790  0.0000E+00  0.4800E+02
   9.800  0.0000E+00  0.4800E+02
   9.810  0.0000E+00  0.4800E+02
   9.820  0.0000E+00  0.4800E+02
   9.830  0.0000E+00  0.4800E+02
   9.840  0.0000E+00  0.4800E+02
   9.850  0.0000E+00  0.4800E+02
   9.860  0.0000E+00  0.4800E+02
   9.870  0.0000E+00  0.4800E+02
   9.880  0.0000E+00  0.4800E+02
   9.890  0.0000E+00  0.4800E+02
   9.900  0.0000E+00  0.4800E+02
   9.910  0.0000E+00  0.4800E+02
   9.920  0.0000E+00  0.4800E+02
   9.930  0.0000E+00  0.4800E+02
   9.940  0.0000E+00  0.4800E+02
   9.950  0.0000E+00  0.4800E+02
   9.960  0.0000E+00  0.4800E+02
   9.970  0.0000E+00  0.4800E+02
   9.980  0.0000E+00  0.4800E+02
   9.990  0.0000E+00  0.4800E+02
  10.000  0.0000E+00  0.4800E+02
  10.010  0.0000E+00  0.4800E+02
  10.020  0.0000E+00  0.4800E+02
  10.030  0.0000E+00  0.4800E+02
  10.040  0.0000E+00  0.4800E+02
  10.050  0.0000E+00  0.4800E+02
  10.060  0.0000E+00  0.4800E+02
  10.070  0.0000E+00  0.4800E+02
  10.080  0.0000E+00  0.4800E+02
  10.090  0.0000E+00  0.4800E+02
  10.100  0.0000E+00  0.4800E+02
  10.110  0.0000E+00  0.4800E+02
  10.120  0.0000E+00  0.4800E+02
  10.130  0.0000E+00  0.4800E+02
  10.140  0.0000E+00  0.4800E+02
  10.150  0.0000E+00  0.4800E+02
  10.160  0.0000E+00  0.4800E+02
  10.170  0.0000E+00  0.4800E+02
  10.180  0.0000E+00  0.4800E+02
  10.190  0.0000E+00  0.4800E+02
  10.200  0.0000E+00  0.4800E+02
  10.210  0.0000E+00  0.4800E+02
  10.220  0.0000E+00  0.4800E+02
  10.230  0.0000E+00  0.4800E+02
  10.240  0.0000E+00  0.4800E+02
  10.250  0.0000E+00  0.4800E+02
  10.260  0.0000E+00  0.4800E+02
  10.270  0.0000E+00  0.4800E+02
  10.280  0.0000E+00  0.4800E+02
  10.290  0.0000E+00  0.4800E+02
  10.300  0.0000E+00  0.4800E+02
  10.310  0.0000E+00  0.4800E+02
  10.320  0.0000E+00  0.4800E+02
  10.330  0.0000E+00  0.4800E+02
  10.340  0.0000E+00  0.4800E+02
  10.350  0.0000E+00  0.4800E+02
  10.360  0.0000E+00  0.4800E+02
  10.370  0.0000E+00  0.4800E+02
  10.380  0.0000E+00  0.4800E+02
  10.390  0.0000E+00  0.4800E+02
  10.400  0.0000E+00  0.4800E+02
  10.410  0.0000E+00  0.4800E+02
  10.420  0.0000E+00  0.4800E+02
  10.430  0.0000E+00  0.4800E+02
  10.440  0.0000E+00  0.4800E+02
  10.450  0.0000E+00  0.4800E+02
  10.460  0.0000E+00  0.4800E+02
  10.470  0.0000E+00  0.4800E+02
  10.480  0.0000E+00  0.4800E+02
  10.490  0.0000E+00  0.4800E+02
  10.500  0.0000E+00  0.4800E+02
  10.510  0.0000E+00  0.4800E+02
  10.520  0.0000E+00  0.4800E+02
  10.530  0.0000E+00  0.4800E+02
  10.540  0.0000E+00  0.4800E+02
  10.550  0.0000E+00  0.4800E+02
  10.560  0.0000E+00  0.4800E+02
  10.570  0.0000E+00  0.4800E+02
  10.580  0.0000E+00  0.4800E+02
  10.590  0.0000E+00  0.4800E+02
  10.600  0.0000E+00  0.4800E+02
  10.610  0.0000E+00  0.4800E+02
  10.620  0.0000E+00  0.4800E+02
  10.630  0.0000E+00  0.4800E+02
  10.640  0.0000E+00  0.4800E+02
  10.650  0.0000E+00  0.4800E+02
  10.660  0.0000E+00  0.4800E+02
  10.670  0.0000E+00  0.4800E+02
  10.680  0.0000E+00  0.4800E+02
  10.690  0.0000E+00  0.4800E+02
  10.700  0.0000E+00  0.4800E+02
  10.710  0.0000E+00  0.4800E+02
  10.720  0.0000E+00  0.4800E+02
  10.730  0.0000E+00  0.4800E+02
  10.740  0.0000E+00  0.4800E+02
  10.750  0.0000E+00  0.4800E+02
  10.760  0.0000E+00  0.4800E+02
  10.770  0.0000E+00  0.4800E+02
  10.780  0.0000E+00  0.4800E+02
  10.790  0.0000E+00  0.4800E+02
  10.800  0.0000E+00  0.4800E+02
  10.810  0.0000E+00  0.4800E+02
  10.820  0.0000E+00  0.4800E+02
  10.830  0.0000E+00  0.4800E+02
  10.840  0.0000E+00  0.4800E+02
  10.850  0.0000E+00  0.4800E+02
  10.860  0.0000E+00  0.4800E+02
  10.870  0.0000E+00  0.4800E+02
  10.880  0.0000E+00  0.4800E+02
  10.890  0.0000E+00  0.4800E+02
  10.900  0.0000E+00  0.4800E+02
  10.910  0.0000E+00  0.4800E+02
  10.920  0.0000E+00  0.4800E+02
  10.930  0.0000E+00  0.4800E+02
  10.940  0.0000E+00  0.4800E+02
  10.950  0.0000E+00  0.4800E+02
  10.960  0.0000E+00  0.4800E+02
  10.970  0.0000E+00  0.4800E+02
  10.980  0.0000E+00  0.4800E+02
  10.990  0.0000E+00  0.4800E+02
  11.000  0.0000E+00  0.4800E+02
  11.010  0.0000E+00  0.4800E+02
  11.020  0.0000E+00  0.4800E+02
  11.030  0.0000E+00  0.4800E+02
  11.040  0.0000E+00  0.4800E+02
  11.050  0.0000E+00  0.4800E+02
  11.060  0.0000E+00  0.4800E+02
  11.070  0.0000E+00  0.4800E+02
  11.080  0.0000E+00  0.4800E+02
  11.090  0.0000E+00  0.4800E+02
  11.100  0.0000E+00  0.4800E+02
  11.110  0.0000E+00  0.4800E+02
  11.120  0.0000E+00  0.4800E+02
  11.130  0.0000E+00  0.4800E+02
  11.140  0.0000E+00  0.4800E+02
  11.150  0.0000E+00  0.4800E+02
  11.160  0.0000E+00  0.4800E+02
  11.170  0.0000E+00  0.4800E+02
  11.180  0.0000E+00  0.4800E+02
  11.190  0.0000E+00  0.4800E+02
  11.200  0.0000E+00  0.4800E+02
  11.210  0.0000E+00  0.4800E+02
  11.220  0.0000E+00  0.4800E+02
  11.230  0.0000E+00  0.4800E+02
  11.240  0.0000E+00  0.4800E+02
  11.250  0.0000E+00  0.4800E+02
  11.260  0.0000E+00  0.4800E+02
  11.270  0.0000E+00  0.4800E+02
  11.280  0.0000E+00  0.4800E+02
  11.290  0.0000E+00  0.4800E+02
  11.300  0.0000E+00  0.4800E+02
  11.310  0.0000E+00  0.4800E+02
  11.320  0.0000E+00  0.4800E+02
  11.330  0.0000E+00  0.4800E+02
  11.340  0.0000E+00  0.4800E+02
  11.350  0.0000E+00  0.4800E+02
  11.360  0.0000E+00  0.4800E+02
  11.370  0.0000E+00  0.4800E+02
  11.380  0.0000E+00  0.4800E+02
  11.390  0.0000E+00  0.4800E+02
  11.400  0.0000E+00  0.4800E+02
  11.410  0.0000E+00  0.4800E+02
  11.420  0.0000E+00  0.4800E+02
  11.430  0.0000E+00  0.4800E+02
  11.440  0.0000E+00  0.4800E+02
  11.450  0.0000E+00  0.4800E+02
  11.460  0.0000E+00  0.4800E+02
  11.470  0.0000E+00  0.4800E+02
  11.480  0.0000E+00  0.4800E+02
  11.490  0.0000E+00  0.4800E+02
  11.500  0.0000E+00  0.4800E+02
  11.510  0.0000E+00  0.4800E+02
  11.520  0.0000E+00  0.4800E+02
  11.530  0.0000E+00  0.4800E+02
  11.540  0.0000E+00  0.4800E+02
  11.550  0.0000E+00  0.4800E+02
  11.560  0.0000E+00  0.4800E+02
  11.570  0.0000E+00  0.4800E+02
  11.580  0.0000E+00  0.4800E+02
  11.590  0.0000E+00  0.4800E+02
  11.600  0.0000E+00  0.4800E+02
  11.610  0.0000E+00  0.4800E+02
  11.620  0.0000E+00  0.4800E+02
  11.630  0.0000E+00  0.4800E+02
  11.640  0.0000E+00  0.4800E+02
  11.650  0.0000E+00  0.4800E+02
  11.660  0.0000E+00  0.4800E+02
  11.670  0.0000E+00  0.4800E+02
  11.680  0.0000E+00  0.4800E+02
  11.690  0.0000E+00  0.4800E+02
  11.700  0.0000E+00  0.4800E+02
  11.710  0.0000E+00  0.4800E+02
  11.720  0.0000E+00  0.4800E+02
  11.730  0.0000E+00  0.4800E+02
  11.740  0.0000E+00  0.4800E+02
  11.750  0.0000E+00  0.4800E+02
  11.760  0.0000E+00  0.4800E+02
  11.770  0.0000E+00  0.4800E+02
  11.780  0.0000E+00  0.4800E+02
  11.790  0.0000E+00  0.4800E+02
  11.800  0.0000E+00  0.4800E+02
  11.810  0.0000E+00  0.4800E+02
  11.820  0.0000E+00  0.4800E+02
  11.830  0.0000E+00  0.4800E+02
  11.840  0.0000E+00  0.4800E+02
  11.850  0.0000E+00  0.4800E+02
  11.860  0.0000E+00  0.4800E+02
  11.870  0.0000E+00  0.4800E+02
  11.880  0.0000E+00  0.4800E+02
  11.890  0.0000E+00  0.4800E+02
  11.900  0.0000E+00  0.4800E+02
  11.910  0.0000E+00  0.4800E+02
  11.920  0.0000E+00  0.4800E+02
  11.930  0.0000E+00  0.4800E+02
  11.940  0.0000E+00  0.4800E+02
  11.950  0.0000E+00  0.4800E+02
  11.960  0.0000E+00  0.4800E+02
  11.970  0.0000E+00  0.4800E+02
  11.980  0.0000E+00  0.4800E+02
  11.990  0.0000E+00  0.4800E+02
  12.000  0.0000E+00  0.4800E+02
  12.010  0.0000E+00  0.4800E+02
  12.020  0.0000E+00  0.4800E+02
  12.030  0.0000E+00  0.4800E+02
  12.040  0.0000E+00  0.4800E+02
  12.050  0.0000E+00  0.4800E+02
  12.060  0.0000E+00  0.4800E+02
  12.070  0.0000E+00  0.4800E+02
  12.080  0.0000E+00  0.4800E+02
  12.090  0.0000E+00  0.4800E+02
  12.100  0.0000E+00  0.4800E+02
  12.110  0.0000E+00  0.4800E+02
  12.120  0.0000E+00  0.4800E+02
  12.130  0.0000E+00  0.4800E+02
  12.140  0.0000E+00  0.4800E+02
  12.150  0.0000E+00  0.4800E+02
  12.160  0.0000E+00  0.4800E+02
  12.170  0.0000E+00  0.4800E+02
  12.180  0.0000E+00  0.4800E+02
  12.190  0.0000E+00  0.4800E+02
  12.200  0.0000E+00  0.4800E+02
  12.210  0.0000E+00  0.4800E+02
  12.220  0.0000E+00  0.4800E+02
  12.230  0.0000E+00  0.4800E+02
  12.240  0.0000E+00  0.4800E+02
  12.250  0.0000E+00  0.4800E+02
  12.260  0.0000E+00  0.4800E+02
  12.270  0.0000E+00  0.4800E+02
  12.280  0.0000E+00  0.4800E+02
  12.290  0.0000E+00  0.4800E+02
  12.300  0.0000E+00  0.4800E+02
  12.310  0.0000E+00  0.4800E+02
  12.320  0.0000E+00  0.4800E+02
  12.330  0.0000E+00  0.4800E+02
  12.340  0.0000E+00  0.4800E+02
  12.350  0.0000E+00  0.4800E+02
  12.360  0.0000E+00  0.4800E+02
  12.370  0.0000E+00  0.4800E+02
  12.380  0.0000E+00  0.4800E+02
  12.390  0.0000E+00  0.4800E+02
  12.400  0.0000E+00  0.4800E+02
  12.410  0.0000E+00  0.4800E+02
  12.420  0.0000E+00  0.4800E+02
  12.430  0.0000E+00  0.4800E+02
  12.440  0.0000E+00  0.4800E+02
  12.450  0.0000E+00  0.4800E+02
  12.460  0.0000E+00  0.4800E+02
  12.470  0.0000E+00  0.4800E+02
  12.480  0.0000E+00  0.4800E+02
  12.490  0.0000E+00  0.4800E+02
  12.500  0.0000E+00  0.4800E+02
  12.510  0.0000E+00  0.4800E+02
  12.520  0.0000E+00  0.4800E+02
  12.530  0.0000E+00  0.4800E+02
  12.540  0.0000E+00  0.4800E+02
  12.550  0.0000E+00  0.4800E+02
  12.560  0.0000E+00  0.4800E+02
  12.570  0.0000E+00  0.4800E+02
  12.580  0.0000E+00  0.4800E+02
  12.590  0.0000E+00  0.4800E+02
  12.600  0.0000E+00  0.4800E+02
  12.610  0.0000E+00  0.4800E+02
  12.620  0.0000E+00  0.4800E+02
  12.630  0.0000E+00  0.4800E+02
  12.640  0.0000E+00  0.4800E+02
  12.650  0.0000E+00  0.4800E+02
  12.660  0.0000E+00  0.4800E+02
  12.670  0.0000E+00  0.4800E+02
  12.680  0.0000E+00  0.4800E+02
  12.690  0.0000E+00  0.4800E+02
  12.700  0.0000E+00  0.4800E+02
  12.710  0.0000E+00  0.4800E+02
  12.720  0.0000E+00  0.4800E+02
  12.730  0.0000E+00  0.4800E+02
  12.740  0.0000E+00  0.4800E+02
  12.750  0.0000E+00  0.4800E+02
  12.760  0.0000E+00  0.4800E+02
  12.770  0.0000E+00  0.4800E+02
  12.780  0.0000E+00  0.4800E+02
  12.790  0.0000E+00  0.4800E+02
  12.800  0.0000E+00  0.4800E+02
  12.810  0.0000E+00  0.4800E+02
  12.820  0.0000E+00  0.4800E+02
  12.830  0.0000E+00  0.4800E+02
  12.840  0.0000E+00  0.4800E+02
  12.850  0.0000E+00  0.4800E+02
  12.860  0.0000E+00  0.4800E+02
  12.870  0.0000E+00  0.4800E+02
  12.880  0.0000E+00  0.4800E+02
  12.890  0.0000E+00  0.4800E+02
  12.900  0.0000E+00  0.4800E+02
  12.910  0.0000E+00  0.4800E+02
  12.920  0.0000E+00  0.4800E+02
  12.930  0.0000E+00  0.4800E+02
  12.940  0.0000E+00  0.4800E+02
  12.950  0.0000E+00  0.4800E+02
  12.960  0.0000E+00  0.4800E+02
  12.970  0.0000E+00  0.4800E+02
  12.980  0.0000E+00  0.4800E+02
  12.990  0.0000E+00  0.4800E+02
  13.000  0.0000E+00  0.4800E+02
  13.010  0.0000E+00  0.4800E+02
  13.020  0.0000E+00  0.4800E+02
  13.030  0.0000E+00  0.4800E+02
  13.040  0.0000E+00  0.4800E+02
  13.050  0.0000E+00  0.4800E+02
  13.060  0.0000E+00  0.4800E+02
  13.070  0.0000E+00  0.4800E+02
  13.080  0.0000E+00  0.4800E+02
  13.090  0.0000E+00  0.4800E+02
  13.100  0.0000E+00  0.4800E+02
  13.110  0.0000E+00  0.4800E+02
  13.120  0.0000E+00  0.4800E+02
  13.130  0.0000E+00  0.4800E+02
  13.140  0.0000E+00  0.4800E+02
  13.150  0.0000E+00  0.4800E+02
  13.160  0.0000E+00  0.4800E+02
  13.170  0.0000E+00  0.4800E+02
  13.180  0.0000E+00  0.4800E+02
  13.190  0.0000E+00  0.4800E+02
  13.200  0.0000E+00  0.4800E+02
  13.210  0.0000E+00  0.4800E+02
  13.220  0.0000E+00  0.4800E+02
  13.230  0.0000E+00  0.4800E+02
  13.240  0.0000E+00  0.4800E+02
  13.250  0.0000E+00  0.4800E+02
  13.260  0.0000E+00  0.4800E+02
  13.270  0.0000E+00  0.4800E+02
  13.280  0.0000E+00  0.4800E+02
  13.290  0.0000E+00  0.4800E+02
  13.300  0.0000E+00  0.4800E+02
  13.310  0.0000E+00  0.4800E+02
  13.320  0.0000E+00  0.4800E+02
  13.330  0.0000E+00  0.4800E+02
  13.340  0.0000E+00  0.4800E+02
  13.350  0.0000E+00  0.4800E+02
  13.360  0.0000E+00  0.4800E+02
  13.370  0.0000E+00  0.4800E+02
  13.380  0.0000E+00  0.4800E+02
  13.390  0.0000E+00  0.4800E+02
  13.400  0.0000E+00  0.4800E+02
  13.410  0.0000E+00  0.4800E+02
  13.420  0.0000E+00  0.4800E+02
  13.430  0.0000E+00  0.4800E+02
  13.440  0.0000E+00  0.4800E+02
  13.450  0.0000E+00  0.4800E+02
  13.460  0.0000E+00  0.4800E+02
  13.470  0.0000E+00  0.4800E+02
  13.480  0.0000E+00  0.4800E+02
  13.490  0.0000E+00  0.4800E+02
  13.500  0.0000E+00  0.4800E+02
  13.510  0.0000E+00  0.4800E+02
  13.520  0.0000E+00  0.4800E+02
  13.530  0.0000E+00  0.4800E+02
  13.540  0.0000E+00  0.4800E+02
  13.550  0.0000E+00  0.4800E+02
  13.560  0.0000E+00  0.4800E+02
  13.570  0.0000E+00  0.4800E+02
  13.580  0.0000E+00  0.4800E+02
  13.590  0.0000E+00  0.4800E+02
  13.600  0.0000E+00  0.4800E+02
  13.610  0.0000E+00  0.4800E+02
  13.620  0.0000E+00  0.4800E+02
  13.630  0.0000E+00  0.4800E+02
  13.640  0.0000E+00  0.4800E+02
  13.650  0.0000E+00  0.4800E+02
  13.660  0.0000E+00  0.4800E+02
  13.670  0.0000E+00  0.4800E+02
  13.680  0.0000E+00  0.4800E+02
  13.690  0.0000E+00  0.4800E+02
  13.700  0.0000E+00  0.4800E+02
  13.710  0.0000E+00  0.4800E+02
  13.720  0.0000E+00  0.4800E+02
  13.730  0.0000E+00  0.4800E+02
  13.740  0.0000E+00  0.4800E+02
  13.750  0.0000E+00  0.4800E+02
  13.760  0.0000E+00  0.4800E+02
  13.770  0.0000E+00  0.4800E+02
  13.780  0.0000E+00  0.4800E+02
  13.790  0.0000E+00  0.4800E+02
  13.800  0.0000E+00  0.4800E+02
  13.810  0.0000E+00  0.4800E+02
  13.820  0.0000E+00  0.4800E+02
  13.830  0.0000E+00  0.4800E+02
  13.840  0.0000E+00  0.4800E+02
  13.850  0.0000E+00  0.4800E+02
  13.860  0.0000E+00  0.4800E+02
  13.870  0.0000E+00  0.4800E+02
  13.880  0.0000E+00  0.4800E+02
  13.890  0.0000E+00  0.4800E+02
  13.900  0.0000E+00  0.4800E+02
  13.910  0.0000E+00  0.4800E+02
  13.920  0.0000E+00  0.4800E+02
  13.930  0.0000E+00  0.4800E+02
  13.940  0.0000E+00  0.4800E+02
  13.950  0.0000E+00  0.4800E+02
  13.960  0.0000E+00  0.4800E+02
  13.970  0.0000E+00  0.4800E+02
  13.980  0.0000E+00  0.4800E+02
  13.990  0.0000E+00  0.4800E+02
  14.000  0.0000E+00  0.4800E+02
  14.010  0.0000E+00  0.4800E+02
  14.020  0.0000E+00  0.4800E+02
  14.030  0.0000E+00  0.4800E+02
  14.040  0.0000E+00  0.4800E+02
  14.050  0.0000E+00  0.4800E+02
  14.060  0.0000E+00  0.4800E+02
  14.070  0.0000E+00  0.4800E+02
  14.080  0.0000E+00  0.4800E+02
  14.090  0.0000E+00  0.4800E+02
  14.100  0.0000E+00  0.4800E+02
  14.110  0.0000E+00  0.4800E+02
  14.120  0.0000E+00  0.4800E+02
  14.130  0.0000E+00  0.4800E+02
  14.140  0.0000E+00  0.4800E+02
  14.150  0.0000E+00  0.4800E+02
  14.160  0.0000E+00  0.4800E+02
  14.170  0.0000E+00  0.4800E+02
  14.180  0.0000E+00  0.4800E+02
  14.190  0.0000E+00  0.4800E+02
  14.200  0.0000E+00  0.4800E+02
  14.210  0.0000E+00  0.4800E+02
  14.220  0.0000E+00  0.4800E+02
  14.230  0.0000E+00  0.4800E+02
  14.240  0.0000E+00  0.4800E+02
  14.250  0.0000E+00  0.4800E+02
  14.260  0.0000E+00  0.4800E+02
  14.270  0.0000E+00  0.4800E+02
  14.280  0.0000E+00  0.4800E+02
  14.290  0.0000E+00  0.4800E+02
  14.300  0.0000E+00  0.4800E+02
  14.310  0.0000E+00  0.4800E+02
  14.320  0.0000E+00  0.4800E+02
  14.330  0.0000E+00  0.4800E+02
  14.340  0.0000E+00  0.4800E+02
  14.350  0.0000E+00  0.4800E+02
  14.360  0.0000E+00  0.4800E+02
  14.370  0.0000E+00  0.4800E+02
  14.380  0.0000E+00  0.4800E+02
  14.390  0.0000E+00  0.4800E+02
  14.400  0.0000E+00  0.4800E+02
  14.410  0.0000E+00  0.4800E+02
  14.420  0.0000E+00  0.4800E+02
  14.430  0.0000E+00  0.4800E+02
  14.440  0.0000E+00  0.4800E+02
  14.450  0.0000E+00  0.4800E+02
  14.460  0.0000E+00  0.4800E+02
  14.470  0.0000E+00  0.4800E+02
  14.480  0.0000E+00  0.4800E+02
  14.490  0.0000E+00  0.4800E+02
  14.500  0.0000E+00  0.4800E+02
  14.510  0.0000E+00  0.4800E+02
  14.520  0.0000E+00  0.4800E+02
  14.530  0.0000E+00  0.4800E+02
  14.540  0.0000E+00  0.4800E+02
  14.550  0.0000E+00  0.4800E+02
  14.560  0.0000E+00  0.4800E+02
  14.570  0.0000E+00  0.4800E+02
  14.580  0.0000E+00  0.4800E+02
  14.590  0.0000E+00  0.4800E+02
  14.600  0.0000E+00  0.4800E+02
  14.610  0.0000E+00  0.4800E+02
  14.620  0.0000E+00  0.4800E+02
  14.630  0.0000E+00  0.4800E+02
  14.640  0.0000E+00  0.4800E+02
  14.650  0.0000E+00  0.4800E+02
  14.660  0.0000E+00  0.4800E+02
  14.670  0.0000E+00  0.4800E+02
  14.680  0.0000E+00  0.4800E+02
  14.690  0.0000E+00  0.4800E+02
  14.700  0.0000E+00  0.4800E+02
  14.710  0.0000E+00  0.4800E+02
  14.720  0.0000E+00  0.4800E+02
  14.730  0.0000E+00  0.4800E+02
  14.740  0.0000E+00  0.4800E+02
  14.750  0.0000E+00  0.4800E+02
  14.760  0.0000E+00  0.4800E+02
  14.770  0.0000E+00  0.4800E+02
  14.780  0.0000E+00  0.4800E+02
  14.790  0.0000E+00  0.4800E+02
  14.800  0.0000E+00  0.4800E+02
  14.810  0.0000E+00  0.4800E+02
  14.820  0.0000E+00  0.4800E+02
  14.830  0.0000E+00  0.4800E+02
  14.840  0.0000E+00  0.4800E+02
  14.850  0.0000E+00  0.4800E+02
  14.860  0.0000E+00  0.4800E+02
  14.870  0.0000E+00  0.4800E+02
  14.880  0.0000E+00  0.4800E+02
  14.890  0.0000E+00  0.4800E+02
  14.900  0.0000E+00  0.4800E+02
  14.910  0.0000E+00  0.4800E+02
  14.920  0.0000E+00  0.4800E+02
  14.930  0.0000E+00  0.4800E+02
  14.940  0.0000E+00  0.4800E+02
  14.950  0.0000E+00  0.4800E+02
  14.960  0.0000E+00  0.4800E+02
  14.970  0.0000E+00  0.4800E+02
  14.980  0.0000E+00  0.4800E+02
  14.990  0.0000E+00  0.4800E+02
  15.000  0.0000E+00  0.4800E+02
  15.010  0.0000E+00  0.4800E+02
  15.020  0.0000E+00  0.4800E+02
  15.030  0.0000E+00  0.4800E+02
  15.040  0.0000E+00  0.4800E+02
  15.050  0.0000E+00  0.4800E+02
  15.060  0.0000E+00  0.4800E+02
  15.070  0.0000E+00  0.4800E+02
  15.080  0.0000E+00  0.4800E+02
  15.090  0.0000E+00  0.4800E+02
  15.100  0.0000E+00  0.4800E+02
  15.110  0.0000E+00  0.4800E+02
  15.120  0.0000E+00  0.4800E+02
  15.130  0.0000E+00  0.4800E+02
  15.140  0.0000E+00  0.4800E+02
  15.150  0.0000E+00  0.4800E+02
  15.160  0.0000E+00  0.4800E+02
  15.170  0.0000E+00  0.4800E+02
  15.180  0.0000E+00  0.4800E+02
  15.190  0.0000E+00  0.4800E+02
  15.200  0.0000E+00  0.4800E+02
  15.210  0.0000E+00  0.4800E+02
  15.220  0.0000E+00  0.4800E+02
  15.230  0.0000E+00  0.4800E+02
  15.240  0.0000E+00  0.4800E+02
  15.250  0.0000E+00  0.4800E+02
  15.260  0.0000E+00  0.4800E+02
  15.270  0.0000E+00  0.4800E+02
  15.280  0.0000E+00  0.4800E+02
  15.290  0.0000E+00  0.4800E+02
  15.300  0.0000E+00  0.4800E+02
  15.310  0.0000E+00  0.4800E+02
  15.320  0.0000E+00  0.4800E+02
  15.330  0.0000E+00  0.4800E+02
  15.340  0.0000E+00  0.4800E+02
  15.350  0.0000E+00  0.4800E+02
  15.360  0.0000E+00  0.4800E+02
  15.370  0.0000E+00  0.4800E+02
  15.380  0.0000E+00  0.4800E+02
  15.390  0.0000E+00  0.4800E+02
  15.400  0.0000E+00  0.4800E+02
  15.410  0.0000E+00  0.4800E+02
  15.420  0.0000E+00  0.4800E+02
  15.430  0.0000E+00  0.4800E+02
  15.440  0.0000E+00  0.4800E+02
  15.450  0.0000E+00  0.4800E+02
  15.460  0.0000E+00  0.4800E+02
  15.470  0.0000E+00  0.4800E+02
  15.480  0.0000E+00  0.4800E+02
  15.490  0.0000E+00  0.4800E+02
  15.500  0.0000E+00  0.4800E+02
  15.510  0.0000E+00  0.4800E+02
  15.520  0.0000E+00  0.4800E+02
  15.530  0.0000E+00  0.4800E+02
  15.540  0.0000E+00  0.4800E+02
  15.550  0.0000E+00  0.4800E+02
  15.560  0.0000E+00  0.4800E+02
  15.570  0.0000E+00  0.4800E+02
  15.580  0.0000E+00  0.4800E+02
  15.590  0.0000E+00  0.4800E+02
  15.600  0.0000E+00  0.4800E+02
  15.610  0.0000E+00  0.4800E+02
  15.620  0.0000E+00  0.4800E+02
  15.630  0.0000E+00  0.4800E+02
  15.640  0.0000E+00  0.4800E+02
  15.650  0.0000E+00  0.4800E+02
  15.660  0.0000E+00  0.4800E+02
  15.670  0.0000E+00  0.4800E+02
  15.680  0.0000E+00  0.4800E+02
  15.690  0.0000E+00  0.4800E+02
  15.700  0.0000E+00  0.4800E+02
  15.710  0.0000E+00  0.4800E+02
  15.720  0.0000E+00  0.4800E+02
  15.730  0.0000E+00  0.4800E+02
  15.740  0.0000E+00  0.4800E+02
  15.750  0.0000E+00  0.4800E+02
  15.760  0.0000E+00  0.4800E+02
  15.770  0.0000E+00  0.4800E+02
  15.780  0.0000E+00  0.4800E+02
  15.790  0.0000E+00  0.4800E+02
  15.800  0.0000E+00  0.4800E+02
  15.810  0.0000E+00  0.4800E+02
  15.820  0.0000E+00  0.4800E+02
  15.830  0.0000E+00  0.4800E+02
  15.840  0.0000E+00  0.4800E+02
  15.850  0.0000E+00  0.4800E+02
  15.860  0.0000E+00  0.4800E+02
  15.870  0.0000E+00  0.4800E+02
  15.880  0.0000E+00  0.4800E+02
  15.890  0.0000E+00  0.4800E+02
  15.900  0.0000E+00  0.4800E+02
  15.910  0.0000E+00  0.4800E+02
  15.920  0.0000E+00  0.4800E+02
  15.930  0.0000E+00  0.4800E+02
  15.940  0.0000E+00  0.4800E+02
  15.950  0.0000E+00  0.4800E+02
  15.960  0.0000E+00  0.4800E+02
  15.970  0.0000E+00  0.4800E+02
  15.980  0.0000E+00  0.4800E+02
  15.990  0.0000E+00  0.4800E+02
  16.000  0.0000E+00  0.4800E+02
  16.010  0.0000E+00  0.4800E+02
  16.020  0.0000E+00  0.4800E+02
  16.030  0.0000E+00  0.4800E+02
  16.040  0.0000E+00  0.4800E+02
  16.050  0.0000E+00  0.4800E+02
  16.060  0.0000E+00  0.4800E+02
  16.070  0.0000E+00  0.4800E+02
  16.080  0.0000E+00  0.4800E+02
  16.090  0.0000E+00  0.4800E+02
  16.100  0.0000E+00  0.4800E+02
  16.110  0.0000E+00  0.4800E+02
  16.120  0.0000E+00  0.4800E+02
  16.130  0.0000E+00  0.4800E+02
  16.140  0.0000E+00  0.4800E+02
  16.150  0.0000E+00  0.4800E+02
  16.160  0.0000E+00  0.4800E+02
  16.170  0.0000E+00  0.4800E+02
  16.180  0.0000E+00  0.4800E+02
  16.190  0.0000E+00  0.4800E+02
  16.200  0.0000E+00  0.4800E+02
  16.210  0.0000E+00  0.4800E+02
  16.220  0.0000E+00  0.4800E+02
  16.230  0.0000E+00  0.4800E+02
  16.240  0.0000E+00  0.4800E+02
  16.250  0.0000E+00  0.4800E+02
  16.260  0.0000E+00  0.4800E+02
  16.270  0.0000E+00  0.4800E+02
  16.280  0.0000E+00  0.4800E+02
  16.290  0.0000E+00  0.4800E+02
  16.300  0.0000E+00  0.4800E+02
  16.310  0.0000E+00  0.4800E+02
  16.320  0.0000E+00  0.4800E+02
  16.330  0.0000E+00  0.4800E+02
  16.340  0.0000E+00  0.4800E+02
  16.350  0.0000E+00  0.4800E+02
  16.360  0.0000E+00  0.4800E+02
  16.370  0.0000E+00  0.4800E+02
  16.380  0.0000E+00  0.4800E+02
  16.390  0.0000E+00  0.4800E+02
  16.400  0.0000E+00  0.4800E+02
  16.410  0.0000E+00  0.4800E+02
  16.420  0.0000E+00  0.4800E+02
  16.430  0.0000E+00  0.4800E+02
  16.440  0.0000E+00  0.4800E+02
  16.450  0.0000E+00  0.4800E+02
  16.460  0.0000E+00  0.4800E+02
  16.470  0.0000E+00  0.4800E+02
  16.480  0.0000E+00  0.4800E+02
  16.490  0.0000E+00  0.4800E+02
  16.500  0.0000E+00  0.4800E+02
  16.510  0.0000E+00  0.4800E+02
  16.520  0.0000E+00  0.4800E+02
  16.530  0.0000E+00  0.4800E+02
  16.540  0.0000E+00  0.4800E+02
  16.550  0.0000E+00  0.4800E+02
  16.560  0.0000E+00  0.4800E+02
  16.570  0.0000E+00  0.4800E+02
  16.580  0.0000E+00  0.4800E+02
  16.590  0.0000E+00  0.4800E+02
  16.600  0.0000E+00  0.4800E+02
  16.610  0.0000E+00  0.4800E+02
  16.620  0.0000E+00  0.4800E+02
  16.630  0.0000E+00  0.4800E+02
  16.640  0.0000E+00  0.4800E+02
  16.650  0.0000E+00  0.4800E+02
  16.660  0.0000E+00  0.4800E+02
  16.670  0.0000E+00  0.4800E+02
  16.680  0.0000E+00  0.4800E+02
  16.690  0.0000E+00  0.4800E+02
  16.700  0.0000E+00  0.4800E+02
  16.710  0.0000E+00  0.4800E+02
  16.720  0.0000E+00  0.4800E+02
  16.730  0.0000E+00  0.4800E+02
  16.740  0.0000E+00  0.4800E+02
  16.750  0.0000E+00  0.4800E+02
  16.760  0.0000E+00  0.4800E+02
  16.770  0.0000E+00  0.4800E+02
  16.780  0.0000E+00  0.4800E+02
  16.790  0.0000E+00  0.4800E+02
  16.800  0.0000E+00  0.4800E+02
  16.810  0.0000E+00  0.4800E+02
  16.820  0.0000E+00  0.4800E+02
  16.830  0.0000E+00  0.4800E+02
  16.840  0.0000E+00  0.4800E+02
  16.850  0.0000E+00  0.4800E+02
  16.860  0.0000E+00  0.4800E+02
  16.870  0.0000E+00  0.4800E+02
  16.880  0.0000E+00  0.4800E+02
  16.890  0.0000E+00  0.4800E+02
  16.900  0.0000E+00  0.4800E+02
  16.910  0.0000E+00  0.4800E+02
  16.920  0.0000E+00  0.4800E+02
  16.930  0.0000E+00  0.4800E+02
  16.940  0.0000E+00  0.4800E+02
  16.950  0.0000E+00  0.4800E+02
  16.960  0.0000E+00  0.4800E+02
  16.970  0.0000E+00  0.4800E+02
  16.980  0.0000E+00  0.4800E+02
  16.990  0.0000E+00  0.4800E+02
  17.000  0.0000E+00  0.4800E+02
  17.010  0.0000E+00  0.4800E+02
  17.020  0.0000E+00  0.4800E+02
  17.030  0.0000E+00  0.4800E+02
  17.040  0.0000E+00  0.4800E+02
  17.050  0.0000E+00  0.4800E+02
  17.060  0.0000E+00  0.4800E+02
  17.070  0.0000E+00  0.4800E+02
  17.080  0.0000E+00  0.4800E+02
  17.090  0.0000E+00  0.4800E+02
  17.100  0.0000E+00  0.4800E+02
  17.110  0.0000E+00  0.4800E+02
  17.120  0.0000E+00  0.4800E+02
  17.130  0.0000E+00  0.4800E+02
  17.140  0.0000E+00  0.4800E+02
  17.150  0.0000E+00  0.4800E+02
  17.160  0.0000E+00  0.4800E+02
  17.170  0.0000E+00  0.4800E+02
  17.180  0.0000E+00  0.4800E+02
  17.190  0.0000E+00  0.4800E+02
  17.200  0.0000E+00  0.4800E+02
  17.210  0.0000E+00  0.4800E+02
  17.220  0.0000E+00  0.4800E+02
  17.230  0.0000E+00  0.4800E+02
  17.240  0.0000E+00  0.4800E+02
  17.250  0.0000E+00  0.4800E+02
  17.260  0.0000E+00  0.4800E+02
  17.270  0.0000E+00  0.4800E+02
  17.280  0.0000E+00  0.4800E+02
  17.290  0.0000E+00  0.4800E+02
  17.300  0.0000E+00  0.4800E+02
  17.310  0.0000E+00  0.4800E+02
  17.320  0.0000E+00  0.4800E+02
  17.330  0.0000E+00  0.4800E+02
  17.340  0.0000E+00  0.4800E+02
  17.350  0.0000E+00  0.4800E+02
  17.360  0.0000E+00  0.4800E+02
  17.370  0.0000E+00  0.4800E+02
  17.380  0.0000E+00  0.4800E+02
  17.390  0.0000E+00  0.4800E+02
  17.400  0.0000E+00  0.4800E+02
  17.410  0.0000E+00  0.4800E+02
  17.420  0.0000E+00  0.4800E+02
  17.430  0.0000E+00  0.4800E+02
  17.440  0.0000E+00  0.4800E+02
  17.450  0.0000E+00  0.4800E+02
  17.460  0.0000E+00  0.4800E+02
  17.470  0.0000E+00  0.4800E+02
  17.480  0.0000E+00  0.4800E+02
  17.490  0.0000E+00  0.4800E+02
  17.500  0.0000E+00  0.4800E+02
  17.510  0.0000E+00  0.4800E+02
  17.520  0.0000E+00  0.4800E+02
  17.530  0.0000E+00  0.4800E+02
  17.540  0.0000E+00  0.4800E+02
  17.550  0.0000E+00  0.4800E+02
  17.560  0.0000E+00  0.4800E+02
  17.570  0.0000E+00  0.4800E+02
  17.580  0.0000E+00  0.4800E+02
  17.590  0.0000E+00  0.4800E+02
  17.600  0.0000E+00  0.4800E+02
  17.610  0.0000E+00  0.4800E+02
  17.620  0.0000E+00  0.4800E+02
  17.630  0.0000E+00  0.4800E+02
  17.640  0.0000E+00  0.4800E+02
  17.650  0.0000E+00  0.4800E+02
  17.660  0.0000E+00  0.4800E+02
  17.670  0.0000E+00  0.4800E+02
  17.680  0.0000E+00  0.4800E+02
  17.690  0.0000E+00  0.4800E+02
  17.700  0.0000E+00  0.4800E+02
  17.710  0.0000E+00  0.4800E+02
  17.720  0.0000E+00  0.4800E+02
  17.730  0.0000E+00  0.4800E+02
  17.740  0.0000E+00  0.4800E+02
  17.750  0.0000E+00  0.4800E+02
  17.760  0.0000E+00  0.4800E+02
  17.770  0.0000E+00  0.4800E+02
  17.780  0.0000E+00  0.4800E+02
  17.790  0.0000E+00  0.4800E+02
  17.800  0.0000E+00  0.4800E+02
  17.810  0.0000E+00  0.4800E+02
  17.820  0.0000E+00  0.4800E+02
  17.830  0.0000E+00  0.4800E+02
  17.840  0.0000E+00  0.4800E+02
  17.850  0.0000E+00  0.4800E+02
  17.860  0.0000E+00  0.4800E+02
  17.870  0.0000E+00  0.4800E+02
  17.880  0.0000E+00  0.4800E+02
  17.890  0.0000E+00  0.4800E+02
  17.900  0.0000E+00  0.4800E+02
  17.910  0.0000E+00  0.4800E+02
  17.920  0.0000E+00  0.4800E+02
  17.930  0.0000E+00  0.4800E+02
  17.940  0.0000E+00  0.4800E+02
  17.950  0.0000E+00  0.4800E+02
  17.960  0.0000E+00  0.4800E+02
  17.970  0.0000E+00  0.4800E+02
  17.980  0.0000E+00  0.4800E+02
  17.990  0.0000E+00  0.4800E+02
  18.000  0.0000E+00  0.4800E+02
  18.010  0.0000E+00  0.4800E+02
  18.020  0.0000E+00  0.4800E+02
  18.030  0.0000E+00  0.4800E+02
  18.040  0.0000E+00  0.4800E+02
  18.050  0.0000E+00  0.4800E+02
  18.060  0.0000E+00  0.4800E+02
  18.070  0.0000E+00  0.4800E+02
  18.080  0.0000E+00  0.4800E+02
  18.090  0.0000E+00  0.4800E+02
  18.100  0.0000E+00  0.4800E+02
  18.110  0.0000E+00  0.4800E+02
  18.120  0.0000E+00  0.4800E+02
  18.130  0.0000E+00  0.4800E+02
  18.140  0.0000E+00  0.4800E+02
  18.150  0.0000E+00  0.4800E+02
  18.160  0.0000E+00  0.4800E+02
  18.170  0.0000E+00  0.4800E+02
  18.180  0.0000E+00  0.4800E+02
  18.190  0.0000E+00  0.4800E+02
  18.200  0.0000E+00  0.4800E+02
  18.210  0.0000E+00  0.4800E+02
  18.220  0.0000E+00  0.4800E+02
  18.230  0.0000E+00  0.4800E+02
  18.240  0.0000E+00  0.4800E+02
  18.250  0.0000E+00  0.4800E+02
  18.260  0.0000E+00  0.4800E+02
  18.270  0.0000E+00  0.4800E+02
  18.280  0.0000E+00  0.4800E+02
  18.290  0.0000E+00  0.4800E+02
  18.300  0.0000E+00  0.4800E+02
  18.310  0.0000E+00  0.4800E+02
  18.320  0.0000E+00  0.4800E+02
  18.330  0.0000E+00  0.4800E+02
  18.340  0.0000E+00  0.4800E+02
  18.350  0.0000E+00  0.4800E+02
  18.360  0.0000E+00  0.4800E+02
  18.370  0.0000E+00  0.4800E+02
  18.380  0.0000E+00  0.4800E+02
  18.390  0.0000E+00  0.4800E+02
  18.400  0.0000E+00  0.4800E+02
  18.410  0.0000E+00  0.4800E+02
  18.420  0.0000E+00  0.4800E+02
  18.430  0.0000E+00  0.4800E+02
  18.440  0.0000E+00  0.4800E+02
  18.450  0.0000E+00  0.4800E+02
  18.460  0.0000E+00  0.4800E+02
  18.470  0.0000E+00  0.4800E+02
  18.480  0.0000E+00  0.4800E+02
  18.490  0.0000E+00  0.4800E+02
  18.500  0.0000E+00  0.4800E+02
  18.510  0.0000E+00  0.4800E+02
  18.520  0.0000E+00  0.4800E+02
  18.530  0.0000E+00  0.4800E+02
  18.540  0.0000E+00  0.4800E+02
  18.550  0.0000E+00  0.4800E+02
  18.560  0.0000E+00  0.4800E+02
  18.570  0.0000E+00  0.4800E+02
  18.580  0.0000E+00  0.4800E+02
  18.590  0.0000E+00  0.4800E+02
  18.600  0.0000E+00  0.4800E+02
  18.610  0.0000E+00  0.4800E+02
  18.620  0.0000E+00  0.4800E+02
  18.630  0.0000E+00  0.4800E+02
  18.640  0.0000E+00  0.4800E+02
  18.650  0.0000E+00  0.4800E+02
  18.660  0.0000E+00  0.4800E+02
  18.670  0.0000E+00  0.4800E+02
  18.680  0.0000E+00  0.4800E+02
  18.690  0.0000E+00  0.4800E+02
  18.700  0.0000E+00  0.4800E+02
  18.710  0.0000E+00  0.4800E+02
  18.720  0.0000E+00  0.4800E+02
  18.730  0.0000E+00  0.4800E+02
  18.740  0.0000E+00  0.4800E+02
  18.750  0.0000E+00  0.4800E+02
  18.760  0.0000E+00  0.4800E+02
  18.770  0.0000E+00  0.4800E+02
  18.780  0.0000E+00  0.4800E+02
  18.790  0.0000E+00  0.4800E+02
  18.800  0.0000E+00  0.4800E+02
  18.810  0.0000E+00  0.4800E+02
  18.820  0.0000E+00  0.4800E+02
  18.830  0.0000E+00  0.4800E+02
  18.840  0.0000E+00  0.4800E+02
  18.850  0.0000E+00  0.4800E+02
  18.860  0.0000E+00  0.4800E+02
  18.870  0.0000E+00  0.4800E+02
  18.880  0.0000E+00  0.4800E+02
  18.890  0.0000E+00  0.4800E+02
  18.900  0.0000E+00  0.4800E+02
  18.910  0.0000E+00  0.4800E+02
  18.920  0.0000E+00  0.4800E+02
  18.930  0.0000E+00  0.4800E+02
  18.940  0.0000E+00  0.4800E+02
  18.950  0.0000E+00  0.4800E+02
  18.960  0.0000E+00  0.4800E+02
  18.970  0.0000E+00  0.4800E+02
  18.980  0.0000E+00  0.4800E+02
  18.990  0.0000E+00  0.4800E+02
  19.000  0.0000E+00  0.4800E+02
  19.010  0.0000E+00  0.4800E+02
  19.020  0.0000E+00  0.4800E+02
  19.030  0.0000E+00  0.4800E+02
  19.040  0.0000E+00  0.4800E+02
  19.050  0.0000E+00  0.4800E+02
  19.060  0.0000E+00  0.4800E+02
  19.070  0.0000E+00  0.4800E+02
  19.080  0.0000E+00  0.4800E+02
  19.090  0.0000E+00  0.4800E+02
  19.100  0.0000E+00  0.4800E+02
  19.110  0.0000E+00  0.4800E+02
  19.120  0.0000E+00  0.4800E+02
  19.130  0.0000E+00  0.4800E+02
  19.140  0.0000E+00  0.4800E+02
  19.150  0.0000E+00  0.4800E+02
  19.160  0.0000E+00  0.4800E+02
  19.170  0.0000E+00  0.4800E+02
  19.180  0.0000E+00  0.4800E+02
  19.190  0.0000E+00  0.4800E+02
  19.200  0.0000E+00  0.4800E+02
  19.210  0.0000E+00  0.4800E+02
  19.220  0.0000E+00  0.4800E+02
  19.230  0.0000E+00  0.4800E+02
  19.240  0.0000E+00  0.4800E+02
  19.250  0.0000E+00  0.4800E+02
  19.260  0.0000E+00  0.4800E+02
  19.270  0.0000E+00  0.4800E+02
  19.280  0.0000E+00  0.4800E+02
  19.290  0.0000E+00  0.4800E+02
  19.300  0.0000E+00  0.4800E+02
  19.310  0.0000E+00  0.4800E+02
  19.320  0.0000E+00  0.4800E+02
  19.330  0.0000E+00  0.4800E+02
  19.340  0.0000E+00  0.4800E+02
  19.350  0.0000E+00  0.4800E+02
  19.360  0.0000E+00  0.4800E+02
  19.370  0.0000E+00  0.4800E+02
  19.380  0.0000E+00  0.4800E+02
  19.390  0.0000E+00  0.4800E+02
  19.400  0.0000E+00  0.4800E+02
  19.410  0.0000E+00  0.4800E+02
  19.420  0.0000E+00  0.4800E+02
  19.430  0.0000E+00  0.4800E+02
  19.440  0.0000E+00  0.4800E+02
  19.450  0.0000E+00  0.4800E+02
  19.460  0.0000E+00  0.4800E+02
  19.470  0.0000E+00  0.4800E+02
  19.480  0.0000E+00  0.4800E+02
  19.490  0.0000E+00  0.4800E+02
  19.500  0.0000E+00  0.4800E+02
  19.510  0.0000E+00  0.4800E+02
  19.520  0.0000E+00  0.4800E+02
  19.530  0.0000E+00  0.4800E+02
  19.540  0.0000E+00  0.4800E+02
  19.550  0.0000E+00  0.4800E+02
  19.560  0.0000E+00  0.4800E+02
  19.570  0.0000E+00  0.4800E+02
  19.580  0.0000E+00  0.4800E+02
  19.590  0.0000E+00  0.4800E+02
  19.600  0.0000E+00  0.4800E+02
  19.610  0.0000E+00  0.4800E+02
  19.620  0.0000E+00  0.4800E+02
  19.630  0.0000E+00  0.4800E+02
  19.640  0.0000E+00  0.4800E+02
  19.650  0.0000E+00  0.4800E+02
  19.660  0.0000E+00  0.4800E+02
  19.670  0.0000E+00  0.4800E+02
  19.680  0.0000E+00  0.4800E+02
  19.690  0.0000E+00  0.4800E+02
  19.700  0.0000E+00  0.4800E+02
  19.710  0.0000E+00  0.4800E+02
  19.720  0.0000E+00  0.4800E+02
  19.730  0.0000E+00  0.4800E+02
  19.740  0.0000E+00  0.4800E+02
  19.750  0.0000E+00  0.4800E+02
  19.760  0.0000E+00  0.4800E+02
  19.770  0.0000E+00  0.4800E+02
  19.780  0.0000E+00  0.4800E+02
  19.790  0.0000E+00  0.4800E+02
  19.800  0.0000E+00  0.4800E+02
  19.810  0.0000E+00  0.4800E+02
  19.820  0.0000E+00  0.4800E+02
  19.830  0.0000E+00  0.4800E+02
  19.840  0.0000E+00  0.4800E+02
  19.850  0.0000E+00  0.4800E+02
  19.860  0.0000E+00  0.4800E+02
  19.870  0.0000E+00  0.4800E+02
  19.880  0.0000E+00  0.4800E+02
  19.890  0.0000E+00  0.4800E+02
  19.900  0.0000E+00  0.4800E+02
  19.910  0.0000E+00  0.4800E+02
  19.920  0.0000E+00  0.4800E+02
  19.930  0.0000E+00  0.4800E+02
  19.940  0.0000E+00  0.4800E+02
  19.950  0.0000E+00  0.4800E+02
  19.960  0.0000E+00  0.4800E+02
  19.970  0.0000E+00  0.4800E+02
  19.980  0.0000E+00  0.4800E+02
  19.990  0.0000E+00  0.4800E+02
  20.000  0.0000E+00  0.4800E+02
  20.010  0.0000E+00  0.4800E+02
  20.020  0.0000E+00  0.4800E+02
  20.030  0.0000E+00  0.4800E+02
  20.040  0.0000E+00  0.4800E+02
  20.050  0.0000E+00  0.4800E+02
  20.060  0.0000E+00  0.4800E+02
  20.070  0.0000E+00  0.4800E+02
  20.080  0.0000E+00  0.4800E+02
  20.090  0.0000E+00  0.4800E+02
  20.100  0.0000E+00  0.4800E+02
  20.110  0.0000E+00  0.4800E+02
  20.120  0.0000E+00  0.4800E+02
  20.130  0.0000E+00  0.4800E+02
  20.140  0.0000E+00  0.4800E+02
  20.150  0.0000E+00  0.4800E+02
  20.160  0.0000E+00  0.4800E+02
  20.170  0.0000E+00  0.4800E+02
  20.180  0.0000E+00  0.4800E+02
  20.190  0.0000E+00  0.4800E+02
  20.200  0.0000E+00  0.4800E+02
  20.210  0.0000E+00  0.4800E+02
  20.220  0.0000E+00  0.4800E+02
  20.230  0.0000E+00  0.4800E+02
  20.240  0.0000E+00  0.4800E+02
  20.250  0.0000E+00  0.4800E+02
  20.260  0.0000E+00  0.4800E+02
  20.270  0.0000E+00  0.4800E+02
  20.280  0.0000E+00  0.4800E+02
  20.290  0.0000E+00  0.4800E+02
  20.300  0.0000E+00  0.4800E+02
  20.310  0.0000E+00  0.4800E+02
  20.320  0.0000E+00  0.4800E+02
  20.330  0.0000E+00  0.4800E+02
  20.340  0.0000E+00  0.4800E+02
  20.350  0.0000E+00  0.4800E+02
  20.360  0.0000E+00  0.4800E+02
  20.370  0.0000E+00  0.4800E+02
  20.380  0.0000E+00  0.4800E+02
  20.390  0.0000E+00  0.4800E+02
  20.400  0.0000E+00  0.4800E+02
  20.410  0.0000E+00  0.4800E+02
  20.420  0.0000E+00  0.4800E+02
  20.430  0.0000E+00  0.4800E+02
  20.440  0.0000E+00  0.4800E+02
  20.450  0.0000E+00  0.4800E+02
  20.460  0.0000E+00  0.4800E+02
  20.470  0.0000E+00  0.4800E+02
  20.480  0.0000E+00  0.4800E+02
  20.490  0.0000E+00  0.4800E+02
  20.500  0.0000E+00  0.4800E+02
  20.510  0.0000E+00  0.4800E+02
  20.520  0.0000E+00  0.4800E+02
  20.530  0.0000E+00  0.4800E+02
  20.540  0.0000E+00  0.4800E+02
  20.550  0.0000E+00  0.4800E+02
  20.560  0.0000E+00  0.4800E+02
  20.570  0.0000E+00  0.4800E+02
  20.580  0.0000E+00  0.4800E+02
  20.590  0.0000E+00  0.4800E+02
  20.600  0.0000E+00  0.4800E+02
  20.610  0.0000E+00  0.4800E+02
  20.620  0.0000E+00  0.4800E+02
  20.630  0.0000E+00  0.4800E+02
  20.640  0.0000E+00  0.4800E+02
  20.650  0.0000E+00  0.4800E+02
  20.660  0.0000E+00  0.4800E+02
  20.670  0.0000E+00  0.4800E+02
  20.680  0.0000E+00  0.4800E+02
  20.690  0.0000E+00  0.4800E+02
  20.700  0.0000E+00  0.4800E+02
  20.710  0.0000E+00  0.4800E+02
  20.720  0.0000E+00  0.4800E+02
  20.730  0.0000E+00  0.4800E+02
  20.740  0.0000E+00  0.4800E+02
  20.750  0.0000E+00  0.4800E+02
  20.760  0.0000E+00  0.4800E+02
  20.770  0.0000E+00  0.4800E+02
  20.780  0.0000E+00  0.4800E+02
  20.790  0.0000E+00  0.4800E+02
  20.800  0.0000E+00  0.4800E+02
  20.810  0.0000E+00  0.4800E+02
  20.820  0.0000E+00  0.4800E+02
  20.830  0.0000E+00  0.4800E+02
  20.840  0.0000E+00  0.4800E+02
  20.850  0.0000E+00  0.4800E+02
  20.860  0.0000E+00  0.4800E+02
  20.870  0.0000E+00  0.4800E+02
  20.880  0.0000E+00  0.4800E+02
  20.890  0.0000E+00  0.4800E+02
  20.900  0.0000E+00  0.4800E+02
  20.910  0.0000E+00  0.4800E+02
  20.920  0.0000E+00  0.4800E+02
  20.930  0.0000E+00  0.4800E+02
  20.940  0.0000E+00  0.4800E+02
  20.950  0.0000E+00  0.4800E+02
  20.960  0.0000E+00  0.4800E+02
  20.970  0.0000E+00  0.4800E+02
  20.980  0.0000E+00  0.4800E+02
  20.990  0.0000E+00  0.4800E+02
  21.000  0.0000E+00  0.4800E+02
  21.010  0.0000E+00  0.4800E+02
  21.020  0.0000E+00  0.4800E+02
  21.030  0.0000E+00  0.4800E+02
  21.040  0.0000E+00  0.4800E+02
  21.050  0.0000E+00  0.4800E+02
  21.060  0.0000E+00  0.4800E+02
  21.070  0.0000E+00  0.4800E+02
  21.080  0.0000E+00  0.4800E+02
  21.090  0.0000E+00  0.4800E+02
  21.100  0.0000E+00  0.4800E+02
  21.110  0.0000E+00  0.4800E+02
  21.120  0.0000E+00  0.4800E+02
  21.130  0.0000E+00  0.4800E+02
  21.140  0.0000E+00  0.4800E+02
  21.150  0.0000E+00  0.4800E+02
  21.160  0.0000E+00  0.4800E+02
  21.170  0.0000E+00  0.4800E+02
  21.180  0.0000E+00  0.4800E+02
  21.190  0.0000E+00  0.4800E+02
  21.200  0.0000E+00  0.4800E+02
  21.210  0.0000E+00  0.4800E+02
  21.220  0.0000E+00  0.4800E+02
  21.230  0.0000E+00  0.4800E+02
  21.240  0.0000E+00  0.4800E+02
  21.250  0.0000E+00  0.4800E+02
  21.260  0.0000E+00  0.4800E+02
  21.270  0.0000E+00  0.4800E+02
  21.280  0.0000E+00  0.4800E+02
  21.290  0.0000E+00  0.4800E+02
  21.300  0.0000E+00  0.4800E+02
  21.310  0.0000E+00  0.4800E+02
  21.320  0.0000E+00  0.4800E+02
  21.330  0.0000E+00  0.4800E+02
  21.340  0.0000E+00  0.4800E+02
  21.350  0.0000E+00  0.4800E+02
  21.360  0.0000E+00  0.4800E+02
  21.370  0.0000E+00  0.4800E+02
  21.380  0.0000E+00  0.4800E+02
  21.390  0.0000E+00  0.4800E+02
  21.400  0.0000E+00  0.4800E+02
  21.410  0.0000E+00  0.4800E+02
  21.420  0.0000E+00  0.4800E+02
  21.430  0.0000E+00  0.4800E+02
  21.440  0.0000E+00  0.4800E+02
  21.450  0.0000E+00  0.4800E+02
  21.460  0.0000E+00  0.4800E+02
  21.470  0.0000E+00  0.4800E+02
  21.480  0.0000E+00  0.4800E+02
  21.490  0.0000E+00  0.4800E+02
  21.500  0.0000E+00  0.4800E+02
  21.510  0.0000E+00  0.4800E+02
  21.520  0.0000E+00  0.4800E+02
  21.530  0.0000E+00  0.4800E+02
  21.540  0.0000E+00  0.4800E+02
  21.550  0.0000E+00  0.4800E+02
  21.560  0.0000E+00  0.4800E+02
  21.570  0.0000E+00  0.4800E+02
  21.580  0.0000E+00  0.4800E+02
  21.590  0.0000E+00  0.4800E+02
  21.600  0.0000E+00  0.4800E+02
  21.610  0.0000E+00  0.4800E+02
  21.620  0.0000E+00  0.4800E+02
  21.630  0.0000E+00  0.4800E+02
  21.640  0.0000E+00  0.4800E+02
  21.650  0.0000E+00  0.4800E+02
  21.660  0.0000E+00  0.4800E+02
  21.670  0.0000E+00  0.4800E+02
  21.680  0.0000E+00  0.4800E+02
  21.690  0.0000E+00  0.4800E+02
  21.700  0.0000E+00  0.4800E+02
  21.710  0.0000E+00  0.4800E+02
  21.720  0.0000E+00  0.4800E+02
  21.730  0.0000E+00  0.4800E+02
  21.740  0.0000E+00  0.4800E+02
  21.750  0.0000E+00  0.4800E+02
  21.760  0.0000E+00  0.4800E+02
  21.770  0.0000E+00  0.4800E+02
  21.780  0.0000E+00  0.4800E+02
  21.790  0.0000E+00  0.4800E+02
  21.800  0.0000E+00  0.4800E+02
  21.810  0.0000E+00  0.4800E+02
  21.820  0.0000E+00  0.4800E+02
  21.830  0.0000E+00  0.4800E+02
  21.840  0.0000E+00  0.4800E+02
  21.850  0.0000E+00  0.4800E+02
  21.860  0.0000E+00  0.4800E+02
  21.870  0.0000E+00  0.4800E+02
  21.880  0.0000E+00  0.4800E+02
  21.890  0.0000E+00  0.4800E+02
  21.900  0.0000E+00  0.4800E+02
  21.910  0.0000E+00  0.4800E+02
  21.920  0.0000E+00  0.4800E+02
  21.930  0.0000E+00  0.4800E+02
  21.940  0.0000E+00  0.4800E+02
  21.950  0.0000E+00  0.4800E+02
  21.960  0.0000E+00  0.4800E+02
  21.970  0.0000E+00  0.4800E+02
  21.980  0.0000E+00  0.4800E+02
  21.990  0.0000E+00  0.4800E+02
  22.000  0.0000E+00  0.4800E+02
  22.010  0.0000E+00  0.4800E+02
  22.020  0.0000E+00  0.4800E+02
  22.030  0.0000E+00  0.4800E+02
  22.040  0.0000E+00  0.4800E+02
  22.050  0.0000E+00  0.4800E+02
  22.060  0.0000E+00  0.4800E+02
  22.070  0.0000E+00  0.4800E+02
  22.080  0.0000E+00  0.4800E+02
  22.090  0.0000E+00  0.4800E+02
  22.100  0.0000E+00  0.4800E+02
  22.110  0.0000E+00  0.4800E+02
  22.120  0.0000E+00  0.4800E+02
  22.130  0.0000E+00  0.4800E+02
  22.140  0.0000E+00  0.4800E+02
  22.150  0.0000E+00  0.4800E+02
  22.160  0.0000E+00  0.4800E+02
  22.170  0.0000E+00  0.4800E+02
  22.180  0.0000E+00  0.4800E+02
  22.190  0.0000E+00  0.4800E+02
  22.200  0.0000E+00  0.4800E+02
  22.210  0.0000E+00  0.4800E+02
  22.220  0.0000E+00  0.4800E+02
  22.230  0.0000E+00  0.4800E+02
  22.240  0.0000E+00  0.4800E+02
  22.250  0.0000E+00  0.4800E+02
  22.260  0.0000E+00  0.4800E+02
  22.270  0.0000E+00  0.4800E+02
  22.280  0.0000E+00  0.4800E+02
  22.290  0.0000E+00  0.4800E+02
  22.300  0.0000E+00  0.4800E+02
  22.310  0.0000E+00  0.4800E+02
  22.320  0.0000E+00  0.4800E+02
  22.330  0.0000E+00  0.4800E+02
  22.340  0.0000E+00  0.4800E+02
  22.350  0.0000E+00  0.4800E+02
  22.360  0.0000E+00  0.4800E+02
  22.370  0.0000E+00  0.4800E+02
  22.380  0.0000E+00  0.4800E+02
  22.390  0.0000E+00  0.4800E+02
  22.400  0.0000E+00  0.4800E+02
  22.410  0.0000E+00  0.4800E+02
  22.420  0.0000E+00  0.4800E+02
  22.430  0.0000E+00  0.4800E+02
  22.440  0.0000E+00  0.4800E+02
  22.450  0.0000E+00  0.4800E+02
  22.460  0.0000E+00  0.4800E+02
  22.470  0.0000E+00  0.4800E+02
  22.480  0.0000E+00  0.4800E+02
  22.490  0.0000E+00  0.4800E+02
  22.500  0.0000E+00  0.4800E+02
  22.510  0.0000E+00  0.4800E+02
  22.520  0.0000E+00  0.4800E+02
  22.530  0.0000E+00  0.4800E+02
  22.540  0.0000E+00  0.4800E+02
  22.550  0.0000E+00  0.4800E+02
  22.560  0.0000E+00  0.4800E+02
  22.570  0.0000E+00  0.4800E+02
  22.580  0.0000E+00  0.4800E+02
  22.590  0.0000E+00  0.4800E+02
  22.600  0.0000E+00  0.4800E+02
  22.610  0.0000E+00  0.4800E+02
  22.620  0.0000E+00  0.4800E+02
  22.630  0.0000E+00  0.4800E+02
  22.640  0.0000E+00  0.4800E+02
  22.650  0.0000E+00  0.4800E+02
  22.660  0.0000E+00  0.4800E+02
  22.670  0.0000E+00  0.4800E+02
  22.680  0.0000E+00  0.4800E+02
  22.690  0.0000E+00  0.4800E+02
  22.700  0.0000E+00  0.4800E+02
  22.710  0.0000E+00  0.4800E+02
  22.720  0.0000E+00  0.4800E+02
  22.730  0.0000E+00  0.4800E+02
  22.740  0.0000E+00  0.4800E+02
  22.750  0.0000E+00  0.4800E+02
  22.760  0.0000E+00  0.4800E+02
  22.770  0.0000E+00  0.4800E+02
  22.780  0.0000E+00  0.4800E+02
  22.790  0.0000E+00  0.4800E+02
  22.800  0.0000E+00  0.4800E+02
  22.810  0.0000E+00  0.4800E+02
  22.820  0.0000E+00  0.4800E+02
  22.830  0.0000E+00  0.4800E+02
  22.840  0.0000E+00  0.4800E+02
  22.850  0.0000E+00  0.4800E+02
  22.860  0.0000E+00  0.4800E+02
  22.870  0.0000E+00  0.4800E+02
  22.880  0.0000E+00  0.4800E+02
  22.890  0.0000E+00  0.4800E+02
  22.900  0.0000E+00  0.4800E+02
  22.910  0.0000E+00  0.4800E+02
  22.920  0.0000E+00  0.4800E+02
  22.930  0.0000E+00  0.4800E+02
  22.940  0.0000E+00  0.4800E+02
  22.950  0.0000E+00  0.4800E+02
  22.960  0.0000E+00  0.4800E+02
  22.970  0.0000E+00  0.4800E+02
  22.980  0.0000E+00  0.4800E+02
  22.990  0.0000E+00  0.4800E+02
  23.000  0.0000E+00  0.4800E+02
  23.010  0.0000E+00  0.4800E+02
  23.020  0.0000E+00  0.4800E+02
  23.030  0.0000E+00  0.4800E+02
  23.040  0.0000E+00  0.4800E+02
  23.050  0.0000E+00  0.4800E+02
  23.060  0.0000E+00  0.4800E+02
  23.070  0.0000E+00  0.4800E+02
  23.080  0.0000E+00  0.4800E+02
  23.090  0.0000E+00  0.4800E+02
  23.100  0.0000E+00  0.4800E+02
  23.110  0.0000E+00  0.4800E+02
  23.120  0.0000E+00  0.4800E+02
  23.130  0.0000E+00  0.4800E+02
  23.140  0.0000E+00  0.4800E+02
  23.150  0.0000E+00  0.4800E+02
  23.160  0.0000E+00  0.4800E+02
  23.170  0.0000E+00  0.4800E+02
  23.180  0.0000E+00  0.4800E+02
  23.190  0.0000E+00  0.4800E+02
  23.200  0.0000E+00  0.4800E+02
  23.210  0.0000E+00  0.4800E+02
  23.220  0.0000E+00  0.4800E+02
  23.230  0.0000E+00  0.4800E+02
  23.240  0.0000E+00  0.4800E+02
  23.250  0.0000E+00  0.4800E+02
  23.260  0.0000E+00  0.4800E+02
  23.270  0.0000E+00  0.4800E+02
  23.280  0.0000E+00  0.4800E+02
  23.290  0.0000E+00  0.4800E+02
  23.300  0.0000E+00  0.4800E+02
  23.310  0.0000E+00  0.4800E+02
  23.320  0.0000E+00  0.4800E+02
  23.330  0.0000E+00  0.4800E+02
  23.340  0.0000E+00  0.4800E+02
  23.350  0.0000E+00  0.4800E+02
  23.360  0.0000E+00  0.4800E+02
  23.370  0.0000E+00  0.4800E+02
  23.380  0.0000E+00  0.4800E+02
  23.390  0.0000E+00  0.4800E+02
  23.400  0.0000E+00  0.4800E+02
  23.410  0.0000E+00  0.4800E+02
  23.420  0.0000E+00  0.4800E+02
  23.430  0.0000E+00  0.4800E+02
  23.440  0.0000E+00  0.4800E+02
  23.450  0.0000E+00  0.4800E+02
  23.460  0.0000E+00  0.4800E+02
  23.470  0.0000E+00  0.4800E+02
  23.480  0.0000E+00  0.4800E+02
  23.490  0.0000E+00  0.4800E+02
  23.500  0.0000E+00  0.4800E+02
  23.510  0.0000E+00  0.4800E+02
  23.520  0.0000E+00  0.4800E+02
  23.530  0.0000E+00  0.4800E+02
  23.540  0.0000E+00  0.4800E+02
  23.550  0.0000E+00  0.4800E+02
  23.560  0.0000E+00  0.4800E+02
  23.570  0.0000E+00  0.4800E+02
  23.580  0.0000E+00  0.4800E+02
  23.590  0.0000E+00  0.4800E+02
  23.600  0.0000E+00  0.4800E+02
  23.610  0.0000E+00  0.4800E+02
  23.620  0.0000E+00  0.4800E+02
  23.630  0.0000E+00  0.4800E+02
  23.640  0.0000E+00  0.4800E+02
  23.650  0.0000E+00  0.4800E+02
  23.660  0.0000E+00  0.4800E+02
  23.670  0.0000E+00  0.4800E+02
  23.680  0.0000E+00  0.4800E+02
  23.690  0.0000E+00  0.4800E+02
  23.700  0.0000E+00  0.4800E+02
  23.710  0.0000E+00  0.4800E+02
  23.720  0.0000E+00  0.4800E+02
  23.730  0.0000E+00  0.4800E+02
  23.740  0.0000E+00  0.4800E+02
  23.750  0.0000E+00  0.4800E+02
  23.760  0.0000E+00  0.4800E+02
  23.770  0.0000E+00  0.4800E+02
  23.780  0.0000E+00  0.4800E+02
  23.790  0.0000E+00  0.4800E+02
  23.800  0.0000E+00  0.4800E+02
  23.810  0.0000E+00  0.4800E+02
  23.820  0.0000E+00  0.4800E+02
  23.830  0.0000E+00  0.4800E+02
  23.840  0.0000E+00  0.4800E+02
  23.850  0.0000E+00  0.4800E+02
  23.860  0.0000E+00  0.4800E+02
  23.870  0.0000E+00  0.4800E+02
  23.880  0.0000E+00  0.4800E+02
  23.890  0.0000E+00  0.4800E+02
  23.900  0.0000E+00  0.4800E+02
  23.910  0.0000E+00  0.4800E+02
  23.920  0.0000E+00  0.4800E+02
  23.930  0.0000E+00  0.4800E+02
  23.940  0.0000E+00  0.4800E+02
  23.950  0.0000E+00  0.4800E+02
  23.960  0.0000E+00  0.4800E+02
  23.970  0.0000E+00  0.4800E+02
  23.980  0.0000E+00  0.4800E+02
  23.990  0.0000E+00  0.4800E+02
  24.000  0.0000E+00  0.4800E+02
  24.010  0.0000E+00  0.4800E+02
  24.020  0.0000E+00  0.4800E+02
  24.030  0.0000E+00  0.4800E+02
  24.040  0.0000E+00  0.4800E+02
  24.050  0.0000E+00  0.4800E+02
  24.060  0.0000E+00  0.4800E+02
  24.070  0.0000E+00  0.4800E+02
  24.080  0.0000E+00  0.4800E+02
  24.090  0.0000E+00  0.4800E+02
  24.100  0.0000E+00  0.4800E+02
  24.110  0.0000E+00  0.4800E+02
  24.120  0.0000E+00  0.4800E+02
  24.130  0.0000E+00  0.4800E+02
  24.140  0.0000E+00  0.4800E+02
  24.150  0.0000E+00  0.4800E+02
  24.160  0.0000E+00  0.4800E+02
  24.170  0.0000E+00  0.4800E+02
  24.180  0.0000E+00  0.4800E+02
  24.190  0.0000E+00  0.4800E+02
  24.200  0.0000E+00  0.4800E+02
  24.210  0.0000E+00  0.4800E+02
  24.220  0.0000E+00  0.4800E+02
  24.230  0.0000E+00  0.4800E+02
  24.240  0.0000E+00  0.4800E+02
  24.250  0.0000E+00  0.4800E+02
  24.260  0.0000E+00  0.4800E+02
  24.270  0.0000E+00  0.4800E+02
  24.280  0.0000E+00  0.4800E+02
  24.290  0.0000E+00  0.4800E+02
  24.300  0.0000E+00  0.4800E+02
  24.310  0.0000E+00  0.4800E+02
  24.320  0.0000E+00  0.4800E+02
  24.330  0.0000E+00  0.4800E+02
  24.340  0.0000E+00  0.4800E+02
  24.350  0.0000E+00  0.4800E+02
  24.360  0.0000E+00  0.4800E+02
  24.370  0.0000E+00  0.4800E+02
  24.380  0.0000E+00  0.4800E+02
  24.390  0.0000E+00  0.4800E+02
  24.400  0.0000E+00  0.4800E+02
  24.410  0.0000E+00  0.4800E+02
  24.420  0.0000E+00  0.4800E+02
  24.430  0.0000E+00  0.4800E+02
  24.440  0.0000E+00  0.4800E+02
  24.450  0.0000E+00  0.4800E+02
  24.460  0.0000E+00  0.4800E+02
  24.470  0.0000E+00  0.4800E+02
  24.480  0.0000E+00  0.4800E+02
  24.490  0.0000E+00  0.4800E+02
  24.500  0.0000E+00  0.4800E+02
  24.510  0.0000E+00  0.4800E+02
  24.520  0.0000E+00  0.4800E+02
  24.530  0.0000E+00  0.4800E+02
  24.540  0.0000E+00  0.4800E+02
  24.550  0.0000E+00  0.4800E+02
  24.560  0.0000E+00  0.4800E+02
  24.570  0.0000E+00  0.4800E+02
  24.580  0.0000E+00  0.4800E+02
  24.590  0.0000E+00  0.4800E+02
  24.600  0.0000E+00  0.4800E+02
  24.610  0.0000E+00  0.4800E+02
  24.620  0.0000E+00  0.4800E+02
  24.630  0.0000E+00  0.4800E+02
  24.640  0.0000E+00  0.4800E+02
  24.650  0.0000E+00  0.4800E+02
  24.660  0.0000E+00  0.4800E+02
  24.670  0.0000E+00  0.4800E+02
  24.680  0.0000E+00  0.4800E+02
  24.690  0.0000E+00  0.4800E+02
  24.700  0.0000E+00  0.4800E+02
  24.710  0.0000E+00  0.4800E+02
  24.720  0.0000E+00  0.4800E+02
  24.730  0.0000E+00  0.4800E+02
  24.740  0.0000E+00  0.4800E+02
  24.750  0.0000E+00  0.4800E+02
  24.760  0.0000E+00  0.4800E+02
  24.770  0.0000E+00  0.4800E+02
  24.780  0.0000E+00  0.4800E+02
  24.790  0.0000E+00  0.4800E+02
  24.800  0.0000E+00  0.4800E+02
  24.810  0.0000E+00  0.4800E+02
  24.820  0.0000E+00  0.4800E+02
  24.830  0.0000E+00  0.4800E+02
  24.840  0.0000E+00  0.4800E+02
  24.850  0.0000E+00  0.4800E+02
  24.860  0.0000E+00  0.4800E+02
  24.870  0.0000E+00  0.4800E+02
  24.880  0.0000E+00  0.4800E+02
  24.890  0.0000E+00  0.4800E+02
  24.900  0.0000E+00  0.4800E+02
  24.910  0.0000E+00  0.4800E+02
  24.920  0.0000E+00  0.4800E+02
  24.930  0.0000E+00  0.4800E+02
  24.940  0.0000E+00  0.4800E+02
  24.950  0.0000E+00  0.4800E+02
  24.960  0.0000E+00  0.4800E+02
  24.970  0.0000E+00  0.4800E+02
  24.980  0.0000E+00  0.4800E+02
  24.990  0.0000E+00  0.4800E+02
  25.000  0.0000E+00  0.4800E+02
